sep=,
DeviceTag:,DEMO6_4,,,,,,,,,,,,,,,,,
FirmwareVersion:,1.9.1,,,,,,,,,,,,,,,,,
AppVersion:,2023.6.1,,,,,,,,,,,,,,,,,
SyncStatus:,Synced,,,,,,,,,,,,,,,,,
OutputRate:,60Hz,,,,,,,,,,,,,,,,,
FilterProfile:,General,,,,,,,,,,,,,,,,,
Measurement Mode:,Sensor fusion Mode - Complete (Quaternion),,,,,,,,,,,,,,,,,
StartTime:,2025-02-09 22:14:52.177 -0600,,,,,,,,,,,,,,,,,
 2025,,,,,,,,,,,,,,,,,,,

PacketCounter,SampleTimeFine,Quat_W,Quat_X,Quat_Y,Quat_Z,FreeAcc_X,FreeAcc_Y,FreeAcc_Z
1, 468385410, 0.39153945, 0.40904662, 0.63927305, 0.5203026, -0.0581089, 0.065189116, -0.028636932
2, 468402077, 0.39178878, 0.4092685, 0.63902736, 0.5202421, -0.07972394, 0.08447795, -0.008620262
3, 468418744, 0.3919439, 0.40937784, 0.63886344, 0.52024037, -0.06380021, 0.09130716, 0.025184631
4, 468435411, 0.39208037, 0.40949222, 0.6387035, 0.52024394, -0.053520624, 0.053359695, 0.03519249
5, 468452078, 0.39217737, 0.4095545, 0.6385836, 0.520269, -0.018064763, -0.022634597, -0.001294136
6, 468468745, 0.39224225, 0.40963197, 0.6384829, 0.5202827, -0.005840617, 0.03679515, 0.017266273
7, 468485412, 0.3922272, 0.40964139, 0.6384567, 0.52031875, -0.0018102315, 0.109453626, -0.024542809
8, 468502079, 0.39210302, 0.40958863, 0.63852, 0.5203762, -0.011359375, 0.1249899, -0.027719498
9, 468518746, 0.39193097, 0.40950254, 0.6386247, 0.5204448, -0.014304158, 0.045193203, -0.039071083
10, 468535413, 0.391802, 0.4094887, 0.6387042, 0.5204554, -0.041485347, 0.030005272, 0.032971382
11, 468552080, 0.39164373, 0.4094111, 0.6388141, 0.5205007, -0.050606687, 0.058505632, 0.032094955
12, 468568747, 0.3914471, 0.40929648, 0.6389558, 0.5205652, -0.07354956, 0.05348561, 0.02396679
13, 468585414, 0.3912816, 0.40921447, 0.63908595, 0.52059424, -0.08732115, 0.044344857, -0.003771782
14, 468602081, 0.39107853, 0.4090737, 0.63926446, 0.5206379, -0.09785129, 0.041245963, -0.0043468475
15, 468618748, 0.39090604, 0.40894076, 0.6394249, 0.5206752, -0.09180482, -0.0029415423, 0.029709816
16, 468635415, 0.3908035, 0.40888238, 0.63953435, 0.5206634, -0.08263744, -0.04576506, 0.043509483
17, 468652082, 0.39073727, 0.40885055, 0.6396164, 0.5206375, -0.09420468, -0.022288265, 0.049376488
18, 468668749, 0.3906483, 0.40879396, 0.63970995, 0.5206337, -0.072699375, -0.017205134, 0.048542976
19, 468685416, 0.39060637, 0.40876698, 0.6397644, 0.5206193, -0.07638935, -0.0010441408, 0.03498745
20, 468702083, 0.39053988, 0.4087083, 0.6398365, 0.52062666, -0.0862123, 0.019987423, -0.015133858
21, 468718750, 0.39046544, 0.40863293, 0.639913, 0.52064764, -0.10061525, 7.4608624E-4, 0.0018386841
22, 468735417, 0.39041746, 0.4085867, 0.63996845, 0.5206519, -0.050676867, 0.0050722915, 0.007534027
23, 468752084, 0.39041612, 0.40860957, 0.6399922, 0.52060574, -0.043832455, 0.011247731, 0.023781776
24, 468768751, 0.39035097, 0.40856412, 0.64005554, 0.5206124, -0.048831098, -0.0038715797, 0.0360651
25, 468785418, 0.39028463, 0.40853462, 0.64012074, 0.52060515, -0.068178155, -0.019965518, 0.036331177
26, 468802085, 0.39028764, 0.40858045, 0.6401408, 0.5205423, -0.0896021, -0.00729401, 0.02654934
27, 468818752, 0.39037645, 0.40869385, 0.64008, 0.5204612, -0.12202824, -0.0017422835, 0.06638527
28, 468835419, 0.39042726, 0.40874228, 0.6400453, 0.52042776, -0.13474768, -0.03088122, 0.018562317
29, 468852086, 0.39044812, 0.40872326, 0.6400202, 0.520458, -0.12484539, -0.039697018, 0.044742584
30, 468868753, 0.39057693, 0.4087899, 0.6399116, 0.52044266, -0.14087775, -0.057095714, 0.023043633
31, 468885420, 0.39075506, 0.4089159, 0.6397585, 0.5203981, -0.090019174, 0.015685134, 0.0075616837
32, 468902087, 0.3909004, 0.4090199, 0.6396326, 0.520362, -0.03715143, 0.04707753, -0.0027894974
33, 468918754, 0.39096588, 0.40907815, 0.6395635, 0.52035195, -0.0068225097, 0.028297188, 0.001282692
34, 468935421, 0.39106336, 0.40923342, 0.63947874, 0.5202608, 0.019552018, 0.028793497, -0.025306702
35, 468952088, 0.39107317, 0.40935424, 0.63947487, 0.520163, 0.025925715, 0.034391046, -0.010544777
36, 468968755, 0.391049, 0.409518, 0.6395099, 0.5200092, 0.009807972, 0.055547997, -0.024513245
37, 468985422, 0.390977, 0.4096038, 0.63958323, 0.5199056, -0.0028146987, 0.10161849, 0.026688576
38, 469002089, 0.3908272, 0.40959498, 0.6397093, 0.51987016, -0.10717357, 0.0368422, 0.030877113
39, 469018756, 0.39070308, 0.40955582, 0.63983, 0.51984555, -0.15109432, -0.027367821, 0.046027184
40, 469035423, 0.390595, 0.40947673, 0.63993204, 0.5198636, -0.15339023, 0.02398104, 0.026766777
41, 469052090, 0.39042097, 0.4092748, 0.64007676, 0.5199753, -0.1104078, 0.04181067, 0.030148506
42, 469068757, 0.3902334, 0.409034, 0.6402452, 0.52009785, -0.054433897, 0.047462977, -0.014016151
43, 469085424, 0.39006236, 0.40887702, 0.64040464, 0.5201534, 0.07115378, 0.03940578, -0.019849777
44, 469102091, 0.3899116, 0.40878946, 0.6405767, 0.5201235, 0.085188836, 0.10447107, 0.028430939
45, 469118758, 0.38969824, 0.40872127, 0.64078814, 0.52007645, 0.018324487, 0.032936867, 0.009477615
46, 469135425, 0.38952374, 0.4087635, 0.64099395, 0.5199205, 0.023753615, -0.031766556, 0.012803078
47, 469152092, 0.38937134, 0.40887564, 0.6411687, 0.5197308, -0.014449218, -0.035133332, 0.08058739
48, 469168759, 0.38923967, 0.40899813, 0.6413207, 0.51954556, -0.1326983, -0.097335644, 0.117907524
49, 469185426, 0.38927206, 0.40925992, 0.64132583, 0.51930887, -0.22136097, -0.10840412, 0.059789658
50, 469202093, 0.38934338, 0.40944603, 0.64128697, 0.51915646, -0.27600297, -0.027324012, 0.041131973
51, 469218760, 0.38943663, 0.40960047, 0.6412108, 0.5190589, -0.15030129, -0.004174663, 0.03578186
52, 469235427, 0.3895571, 0.40973964, 0.64111704, 0.5189746, -0.0283743, 0.009860274, 0.03810215
53, 469252094, 0.38962176, 0.4098323, 0.6410679, 0.5189134, 0.04660625, 0.056152713, 0.045827866
54, 469268761, 0.38963854, 0.40989506, 0.64106977, 0.51884896, 0.025383025, 0.057905726, 0.037223816
55, 469285428, 0.38953802, 0.40984246, 0.6411722, 0.5188396, 0.004174775, 0.0013761693, 0.023342133
56, 469302095, 0.38971287, 0.41015002, 0.6410859, 0.51857156, -0.008352903, 0.031375185, -0.033637047
57, 469318762, 0.38984612, 0.41042534, 0.6410448, 0.51830417, -0.060857885, 0.11231336, -0.010587692
58, 469335429, 0.38989386, 0.41057214, 0.64106566, 0.5181262, -0.15332006, 0.0073213903, 0.031028748
59, 469352096, 0.38999704, 0.41074443, 0.6410226, 0.5179653, -0.19859506, -0.13907166, 0.02187252
60, 469368763, 0.39015186, 0.4108574, 0.64094955, 0.5178497, -0.20683867, -0.095399015, 0.07754135
61, 469385430, 0.3903693, 0.4109751, 0.64078873, 0.51779157, -0.24876411, -0.02985105, 0.04898262
62, 469402097, 0.39054415, 0.4109789, 0.64064497, 0.5178343, -0.18140624, -0.050877023, 0.0768013
63, 469418764, 0.39085534, 0.41110137, 0.64039755, 0.5178084, -0.067842886, -0.009047134, 0.097001076
64, 469435431, 0.3911463, 0.4111915, 0.64015114, 0.5178217, -0.069846235, 0.040304303, 0.064863205
65, 469452098, 0.39136788, 0.41118523, 0.63997555, 0.5178762, 4.760826E-5, 0.13253726, 0.035684586
66, 469468765, 0.39141083, 0.41102973, 0.6399387, 0.51801294, 0.021288268, 0.17053615, -0.02235794
67, 469485432, 0.3913002, 0.41076145, 0.64004356, 0.5181797, 0.11696545, 0.122492366, -0.083951
68, 469502099, 0.39110893, 0.41050345, 0.64021814, 0.5183131, 0.09350888, 0.17997777, -0.08433151
69, 469518766, 0.39068422, 0.41006857, 0.6405856, 0.5185236, 0.067055896, 0.15629043, -0.031042099
70, 469535433, 0.39025036, 0.40962848, 0.6409822, 0.5187079, -0.010704483, 0.0043138, 0.025814056
71, 469552100, 0.3898564, 0.4092499, 0.6413411, 0.5188593, -0.12243168, 0.01687601, 0.020653725
72, 469568767, 0.38953394, 0.40889508, 0.64163285, 0.51902056, -0.18477994, -0.054405734, 0.027488708
73, 469585434, 0.3892963, 0.40857944, 0.6418624, 0.5191635, -0.18709531, -0.06900314, 0.037651062
74, 469602101, 0.3890918, 0.40824968, 0.6420579, 0.51933444, -0.16856632, -0.03452817, 0.07393551
75, 469618768, 0.38890874, 0.40789163, 0.64223105, 0.5195389, -0.14846423, -0.076772116, 0.037425995
76, 469635435, 0.38888934, 0.40769395, 0.6422824, 0.5196448, -0.09867717, -0.07147307, 0.040554047
77, 469652102, 0.38888574, 0.407517, 0.64231676, 0.5197441, -0.08286944, -0.031785443, 0.022937775
78, 469668769, 0.38900706, 0.4074788, 0.64224726, 0.51976895, -0.045613855, 0.0147057, 0.043886185
79, 469685436, 0.38907188, 0.40741733, 0.6421982, 0.5198292, -0.06819827, 0.03825089, 0.0054969788
80, 469702103, 0.38913232, 0.40734354, 0.6421758, 0.51986957, -0.04464515, -0.04116114, 0.013568878
81, 469718770, 0.3892574, 0.40735626, 0.6421071, 0.5198507, -0.06413905, -0.0042457404, 0.010866165
82, 469735437, 0.3893517, 0.40733686, 0.64204806, 0.51986814, -0.089626685, 0.034515876, 0.027571678
83, 469752104, 0.3895323, 0.40741473, 0.64192104, 0.51982886, -0.100259416, -0.043794457, 0.008546829
84, 469768771, 0.38975498, 0.40752378, 0.64176774, 0.5197658, -0.072133295, -0.057190448, -0.007680893
85, 469785438, 0.3899087, 0.40758, 0.6416599, 0.51973957, -0.07787459, -0.014809969, -0.002213478
86, 469802105, 0.39010555, 0.40771472, 0.6415162, 0.5196636, -0.040836487, 0.039923325, -0.0045347214
87, 469818772, 0.39025006, 0.407813, 0.64141303, 0.51960534, -0.056812525, 0.07579671, -0.015062332
88, 469835439, 0.39032117, 0.40785626, 0.641362, 0.51958084, -0.036746647, 0.020160757, 0.008574486
89, 469852106, 0.3904158, 0.40795374, 0.6412993, 0.5195105, -0.04758859, -0.0033491182, 0.0021190643
90, 469868773, 0.39035517, 0.40789375, 0.6413571, 0.5195319, -0.042916723, 0.042299155, 0.008684158
91, 469885440, 0.39030695, 0.4078454, 0.6414057, 0.5195461, -0.026580384, 0.022515913, -0.007639885
92, 469902107, 0.39037064, 0.40794116, 0.64137447, 0.51946163, -0.06816452, 0.013075173, -0.002732277
93, 469918774, 0.39040193, 0.40803733, 0.6413543, 0.5193875, -0.10441564, 0.015861932, 0.021349907
94, 469935441, 0.39041027, 0.40805918, 0.64136416, 0.51935184, -0.08592196, -0.023558043, 0.02827549
95, 469952108, 0.3904995, 0.40817174, 0.64130604, 0.51926816, -0.09456252, 0.009581554, 0.03507042
96, 469968775, 0.3905244, 0.4081626, 0.64130145, 0.51926225, -0.14095196, -0.020275531, 0.027114868
97, 469985442, 0.39067113, 0.40826482, 0.6411902, 0.51920897, -0.10390268, -0.0544748, 0.027441978
98, 470002109, 0.3907793, 0.4083119, 0.6411119, 0.5191871, -0.0807787, -0.03009166, 0.028166771
99, 470018776, 0.3909829, 0.40849623, 0.6409499, 0.519089, -0.04587648, 0.016520513, 0.053990364
100, 470035443, 0.39114538, 0.40862677, 0.6408207, 0.51902336, -0.01894697, 0.04269645, 0.059951782
101, 470052110, 0.391262, 0.40873218, 0.6407137, 0.51898456, 0.011790755, 0.03821345, 0.028867722
102, 470068777, 0.39132884, 0.40882325, 0.6406401, 0.5189531, -0.06139789, 0.039581127, -0.006822586
103, 470085444, 0.3914324, 0.40896595, 0.64054215, 0.51888347, -0.04980919, 0.018578509, -0.0033054352
104, 470102111, 0.39152163, 0.40907967, 0.64046115, 0.5188265, -0.086641, 0.022391528, 0.011671066
105, 470118778, 0.39162812, 0.40920883, 0.6403616, 0.5187672, -0.033762526, 0.0429916, 0.013754845
106, 470135445, 0.39171988, 0.40935314, 0.6402755, 0.5186904, -0.017261906, 0.052868415, 0.02029705
107, 470152112, 0.39178953, 0.4094877, 0.6402112, 0.5186108, -0.036904, 0.056684338, 0.01861
108, 470168779, 0.3917939, 0.4095523, 0.64020157, 0.5185684, -0.051176198, 0.039770555, 0.020633698
109, 470185446, 0.39169702, 0.40948603, 0.6402782, 0.5185994, -0.07983637, 0.0125506995, 0.016945839
110, 470202113, 0.391691, 0.40951377, 0.6402914, 0.51856583, -0.06494281, 0.013774545, 0.0139865875
111, 470218780, 0.39160082, 0.40948844, 0.64035606, 0.51857394, -0.06797476, 0.024359895, -0.0082502365
112, 470235447, 0.39155954, 0.40950805, 0.6404031, 0.51853156, -0.043408226, 0.035285097, 0.005970001
113, 470252114, 0.391461, 0.40947196, 0.6404814, 0.5185379, -0.05957939, 0.041669074, 0.0031023026
114, 470268781, 0.39133132, 0.40942657, 0.6405676, 0.5185649, -0.07350559, 0.0128144445, 0.021582603
115, 470285448, 0.39120772, 0.40939602, 0.6406546, 0.5185748, -0.051435247, 2.7905594E-4, 0.036198616
116, 470302115, 0.3910863, 0.4093575, 0.6407414, 0.51858974, -0.08472795, -0.027693925, 0.06771469
117, 470318782, 0.39101696, 0.40935862, 0.64078563, 0.51858646, -0.09793936, -0.008027133, 0.06076622
118, 470335449, 0.3909553, 0.40934953, 0.6408256, 0.51859057, -0.12978995, -0.006948459, 0.027505875
119, 470352116, 0.39088845, 0.40928024, 0.64086014, 0.5186529, -0.121034056, -9.3663106E-4, 0.031069756
120, 470368783, 0.39089394, 0.4092674, 0.6408394, 0.5186847, -0.11057097, 0.010486781, 0.03246498
121, 470385450, 0.39102656, 0.4093768, 0.64071965, 0.51864636, -0.08243247, 0.010870217, 0.026202202
122, 470402117, 0.39105967, 0.40934113, 0.6406796, 0.51869905, -0.07737728, -0.014298236, 0.052289963
123, 470418784, 0.39114082, 0.40934515, 0.6405995, 0.51873344, -0.08606925, -0.013837016, 0.042655945
124, 470435451, 0.39124358, 0.40937725, 0.6405038, 0.518749, -0.047471248, 0.016027108, 0.014958382
125, 470452118, 0.3913363, 0.40940732, 0.6404166, 0.5187628, -0.05216971, 0.065031655, -0.007288933
126, 470468785, 0.39137897, 0.40938222, 0.64037824, 0.5187978, 0.0013354899, 0.060071006, 0.015481949
127, 470485452, 0.39135033, 0.40932336, 0.64039916, 0.5188402, -0.007919958, 0.062730365, -0.00617218
128, 470502119, 0.39128795, 0.4092558, 0.6404444, 0.5188849, -0.030474203, 0.056710377, -1.2207031E-4
129, 470518786, 0.39122856, 0.4092207, 0.6404931, 0.51889694, -0.043623023, 0.02321685, 0.0051651
130, 470535453, 0.39120513, 0.4092107, 0.6405244, 0.5188838, -0.09018837, -0.025830833, 0.038614273
131, 470552120, 0.3912239, 0.40926322, 0.64051557, 0.51883924, -0.078502, -0.001402879, 5.4073334E-4
132, 470568787, 0.39120564, 0.4092627, 0.6405345, 0.5188302, -0.09125877, 0.034251235, 0.0069274902
133, 470585454, 0.39112777, 0.4092012, 0.64058274, 0.5188777, -0.10410384, 0.018416574, -0.008111954
134, 470602121, 0.39107266, 0.4091625, 0.6406031, 0.51892483, -0.07985291, -0.014358807, -0.02124405
135, 470618788, 0.39100567, 0.40908417, 0.6406284, 0.5190056, -0.105207995, 0.005264736, 0.03201866
136, 470635455, 0.39097303, 0.4090354, 0.6406271, 0.51907015, -0.083862506, -0.023149796, 0.079553604
137, 470652122, 0.39101323, 0.40910596, 0.64056456, 0.51906145, -0.062454212, -0.032244314, 0.04695797
138, 470668789, 0.39110002, 0.4092719, 0.64045274, 0.51900333, -0.056169253, -0.030361554, -0.035305023
139, 470685456, 0.39124846, 0.40955484, 0.6403044, 0.5188514, 0.01509897, -0.06431239, -0.03971386
140, 470702123, 0.39131442, 0.40981382, 0.64019305, 0.5187346, 0.024612576, 0.016578738, -0.029373169
141, 470718790, 0.3912171, 0.4098514, 0.640173, 0.5188029, -0.11015188, 0.06548606, 0.026996613
142, 470735457, 0.3911231, 0.4098763, 0.64016604, 0.5188627, -0.089140765, -0.06281083, -0.005013466
143, 470752124, 0.39105126, 0.4099216, 0.6401318, 0.5189233, -0.096839, -0.03652235, 0.016383171
144, 470768791, 0.39107776, 0.41004717, 0.64002985, 0.5189299, -0.09337455, 0.031332605, 0.0672884
145, 470785458, 0.39115375, 0.41022006, 0.63988626, 0.5189131, -0.07033908, 0.043118443, 0.05575943
146, 470802125, 0.3912452, 0.41042197, 0.63974583, 0.5188575, -0.02366421, 0.033282645, 0.034638405
147, 470818792, 0.39129043, 0.41049576, 0.63965636, 0.51887536, -0.08084173, 0.055593707, 0.105793
148, 470835459, 0.39128712, 0.4104912, 0.6395933, 0.5189592, -0.14162205, -0.038005583, 0.05115795
149, 470852126, 0.39132583, 0.4104761, 0.6395042, 0.5190518, -0.12378639, -0.0090083545, 0.045977592
150, 470868793, 0.39136264, 0.4104386, 0.6394137, 0.5191651, -0.11555798, 0.031992864, 0.021493912
151, 470885460, 0.39146358, 0.41043994, 0.6392738, 0.5192602, -0.10115481, 0.0178284, 0.009875298
152, 470902127, 0.3915704, 0.4104422, 0.63913554, 0.51934814, -0.114683606, 0.04024507, 0.046372414
153, 470918794, 0.39169776, 0.41045657, 0.6389847, 0.5194264, -0.072048284, -0.02591655, 0.034118652
154, 470935461, 0.39189798, 0.41051614, 0.6387799, 0.51947993, -0.073929146, -0.03783996, 0.058153152
155, 470952128, 0.39209992, 0.41055417, 0.63857704, 0.5195469, -0.08547268, -0.008020908, 0.015239716
156, 470968795, 0.39228955, 0.41056418, 0.638385, 0.5196321, -0.14750536, 0.035061136, -0.0030412674
157, 470985462, 0.39249888, 0.41052914, 0.63818383, 0.5197489, -0.118675545, 0.07113724, 0.06775665
158, 471002129, 0.39269456, 0.41045097, 0.6379844, 0.5199074, -0.12079802, 0.03434947, 0.024007797
159, 471018796, 0.39294508, 0.41043064, 0.6377864, 0.5199771, -0.040979087, 0.04511162, 0.038393974
160, 471035463, 0.393041, 0.41034362, 0.63770854, 0.52006865, -0.017085778, 0.047336355, 0.030709267
161, 471052130, 0.39245513, 0.41033775, 0.6382418, 0.5198618, -1.0569067, -0.26878875, -0.53974056
162, 471068797, 0.39178148, 0.41047922, 0.6390531, 0.519261, -0.8714292, -0.23096164, 0.0070590973
163, 471085464, 0.3909705, 0.41056263, 0.6400237, 0.5186104, -0.5403229, -0.52079505, -0.207757
164, 471102131, 0.3897946, 0.4107313, 0.64112276, 0.518004, -1.2716058, -0.21669815, -0.50076675
165, 471118798, 0.38937607, 0.4113042, 0.64198405, 0.51679647, -0.46683943, -0.4675909, 0.4396
166, 471135465, 0.38821167, 0.41155526, 0.643109, 0.51607317, -1.1537318, -0.32582188, -0.52113056
167, 471152132, 0.38747773, 0.41189492, 0.6440323, 0.515202, -0.09283052, 0.25520965, 0.51055527
168, 471168799, 0.38626575, 0.41113517, 0.6453991, 0.5150082, -0.25158417, 0.26878864, 1.0791044
169, 471185466, 0.38539922, 0.41094288, 0.64615464, 0.5148636, 0.016810857, -0.78486, 0.51547337
170, 471202133, 0.3847831, 0.41160986, 0.64687794, 0.5138822, 0.1125904, -0.021892646, 0.52438736
171, 471218800, 0.38342527, 0.41183975, 0.6478368, 0.5135048, 0.42734715, 0.12169979, -0.18305492
172, 471235467, 0.381551, 0.4115421, 0.64908, 0.5135698, -0.9645804, -0.47532043, 0.024458885
173, 471252134, 0.38024497, 0.41108298, 0.6499135, 0.5138521, -1.9704424, -1.1649507, 0.45466328
174, 471268801, 0.37959206, 0.41030797, 0.65017843, 0.51461846, -2.640485, -0.8821827, 0.45191383
175, 471285468, 0.3795037, 0.40928662, 0.64990216, 0.5158445, -1.8731767, -0.05436975, 0.22721767
176, 471302135, 0.37949067, 0.40790066, 0.64950716, 0.51744676, -1.2160497, 0.69090325, -0.39092636
177, 471318802, 0.37889162, 0.4059546, 0.64969856, 0.5191729, -0.7162513, 0.5982541, -1.1328936
178, 471335469, 0.3778864, 0.40410206, 0.6504188, 0.52044743, -0.0036086168, -0.20771909, -1.1766405
179, 471352136, 0.3770717, 0.4030886, 0.6511488, 0.5209114, 0.5153623, -0.60396373, -0.652051
180, 471368803, 0.37619278, 0.4026453, 0.6519875, 0.52084076, 0.46666375, -0.07798367, -0.3538084
181, 471385470, 0.37510422, 0.4022384, 0.65316534, 0.5204642, 0.28911513, 0.10330389, 0.12764454
182, 471402137, 0.37388346, 0.4018228, 0.6545643, 0.51990575, -0.010305735, -0.18001689, 0.36818123
183, 471418804, 0.37291607, 0.4019115, 0.6558101, 0.5189612, -0.16533476, -0.119344965, 0.13046932
184, 471435471, 0.37155402, 0.40173063, 0.6573021, 0.51819, -0.33555487, 0.21166822, 0.0493927
185, 471452138, 0.3696811, 0.40117446, 0.65910816, 0.51766604, -0.43846425, -0.1613939, 0.18994236
186, 471468805, 0.36791742, 0.40082628, 0.66079986, 0.5170352, -0.38441256, -0.6646249, 0.5454092
187, 471485472, 0.3667515, 0.40111294, 0.66202897, 0.51606804, -0.23801693, -0.8655205, 0.719944
188, 471502139, 0.3659292, 0.40190881, 0.66292727, 0.51487803, -0.25282446, -0.42106834, 0.46121216
189, 471518806, 0.36535102, 0.40303573, 0.6637571, 0.5133364, -0.21693608, -0.35404754, 0.27794647
190, 471535473, 0.36450142, 0.40423062, 0.6647714, 0.51168555, -0.2548231, 0.12478561, -0.013056755
191, 471552140, 0.36283445, 0.40498063, 0.6663303, 0.5102477, -0.109388135, 0.35061327, -0.050807953
192, 471568807, 0.3603586, 0.4052657, 0.6684338, 0.5090231, -0.03835214, 0.14477393, -0.24965763
193, 471585474, 0.3574385, 0.40522817, 0.67088413, 0.5078869, -0.22318015, -0.08364112, 0.045633316
194, 471602141, 0.35433543, 0.4050193, 0.67345285, 0.50682724, -0.59747136, -0.7057371, 0.29052734
195, 471618808, 0.35188612, 0.40536007, 0.6754996, 0.5055359, -0.8887678, -1.271204, 0.6608591
196, 471635475, 0.34972215, 0.40592614, 0.6772456, 0.50424576, -1.1493615, -0.58797026, 0.68266106
197, 471652142, 0.34736055, 0.40595892, 0.6790318, 0.50344855, -1.1038822, -0.3947193, 0.5452204
198, 471668809, 0.3451601, 0.40592676, 0.68065596, 0.5027945, -0.83762753, -0.61383754, 0.016993523
199, 471685476, 0.34305114, 0.4058162, 0.68222636, 0.50219834, -0.8681321, -0.36455488, 0.01667595
200, 471702143, 0.34062573, 0.4051701, 0.683986, 0.5019773, -0.7814053, -0.38241905, 0.41429043
201, 471718810, 0.33830643, 0.40451038, 0.6856847, 0.5017603, -0.484524, -0.89680684, 0.76326084
202, 471735477, 0.33655682, 0.4044172, 0.6869897, 0.50122666, -0.31661102, -1.2155769, 0.85675335
203, 471752144, 0.33565643, 0.4052102, 0.6877736, 0.5001138, -0.5480026, -1.2518333, 0.5172281
204, 471768811, 0.33528107, 0.40661734, 0.6881356, 0.49872342, -1.1834046, -1.0320516, -0.14125824
205, 471785478, 0.33529794, 0.4085356, 0.68825084, 0.49698249, -1.6001008, -0.86158746, -0.43875122
206, 471802145, 0.33541894, 0.41058692, 0.68819827, 0.49528039, -1.7150918, -0.4105433, -0.4290905
207, 471818812, 0.33569252, 0.4126498, 0.68812674, 0.4934765, -1.410845, 0.08170829, -0.079372406
208, 471835479, 0.3359202, 0.41475976, 0.6881063, 0.4915778, -0.97135454, 0.27068123, -0.21663666
209, 471852146, 0.3358976, 0.4170013, 0.6882748, 0.4894564, -0.526489, 0.51657635, -0.49479008
210, 471868813, 0.33534116, 0.41906753, 0.6889736, 0.487084, -0.27709952, 0.5777196, -0.25973988
211, 471885480, 0.33417442, 0.42071193, 0.6902888, 0.48459986, -0.1413239, 0.15015231, 0.00434494
212, 471902147, 0.33278635, 0.42239186, 0.6918886, 0.48180452, -0.21730958, -0.026111789, 0.29742336
213, 471918814, 0.3310106, 0.42403853, 0.69385, 0.47875082, -0.24788436, -0.077430815, 0.21132374
214, 471935481, 0.32900232, 0.42580688, 0.6960244, 0.47539768, -0.15094322, -0.16460668, -0.14607716
215, 471952148, 0.32674685, 0.42754596, 0.69843155, 0.47184888, -0.17893508, -0.21337597, -0.24974537
216, 471968815, 0.32427314, 0.42923036, 0.7010465, 0.46813333, -0.57177633, -0.3200862, -0.30869007
217, 471985482, 0.32167417, 0.43093443, 0.7037868, 0.46423277, -0.99631214, -0.46708542, -0.50594425
218, 472002149, 0.3190858, 0.43277067, 0.7064963, 0.46017778, -1.0660101, -0.205646, -0.5177765
219, 472018816, 0.31685874, 0.4351187, 0.7090213, 0.45559642, -0.6186872, -0.28567716, -0.68542767
220, 472035483, 0.31508076, 0.43800747, 0.711291, 0.45049483, -0.30593827, -0.24709882, -0.49790382
221, 472052150, 0.3132593, 0.44113272, 0.71361494, 0.445007, -0.047685146, -0.70408815, -0.40510082
222, 472068817, 0.31162822, 0.44476226, 0.715894, 0.43883577, 0.37147138, -1.0569748, -0.5487261
223, 472085484, 0.3098414, 0.4486053, 0.71843106, 0.43198988, 0.37047586, -0.8463026, -0.99016476
224, 472102151, 0.30763382, 0.45228723, 0.7214055, 0.4247101, 0.52202356, 0.2578555, -0.5833492
225, 472118818, 0.3044306, 0.45522004, 0.7249691, 0.4177602, 0.5963431, 1.0702101, -0.004855156
226, 472135485, 0.30056918, 0.4576581, 0.7289313, 0.41094184, 0.35497233, 0.96676224, 0.91114616
227, 472152152, 0.29737183, 0.460683, 0.73259246, 0.40330696, 1.0919198, 0.9178151, 0.9453497
228, 472168819, 0.29492706, 0.46427798, 0.73604983, 0.39459032, 2.0180957, 1.5849259, 0.8805542
229, 472185486, 0.29312375, 0.46856728, 0.73933953, 0.38458687, 3.1530864, 1.1815643, 0.63061905
230, 472202153, 0.29311085, 0.47423208, 0.74195576, 0.3724225, 4.8869276, 0.7471102, 0.8384857
231, 472218820, 0.29538342, 0.48105085, 0.7437351, 0.35805538, 7.060651, 0.72802436, -0.031131744
232, 472235487, 0.29920304, 0.48867932, 0.74496, 0.34163085, 8.476854, 1.266976, -1.1347113
233, 472252154, 0.30237097, 0.4968945, 0.746489, 0.32315433, 9.678324, 0.5359237, -2.3491864
234, 472268821, 0.30338085, 0.5053754, 0.74865067, 0.30345517, 9.86686, -0.69370955, -2.049367
235, 472285488, 0.30152863, 0.51563615, 0.75072986, 0.28215557, 8.463841, 2.3525813, -0.392807
236, 472302155, 0.28986296, 0.5233463, 0.75662917, 0.2638322, 7.748318, 9.958992, 2.300562
237, 472318822, 0.2745685, 0.52675194, 0.76543564, 0.2475072, 11.078986, 7.569942, 2.4227972
238, 472335489, 0.26379782, 0.532404, 0.7711365, 0.22871858, 9.375926, 7.81888, 0.5114212
239, 472352156, 0.25000826, 0.53856224, 0.7757959, 0.21352851, 6.497409, 11.29679, -0.9120121
240, 472368823, 0.22695212, 0.54335004, 0.7819501, 0.20451093, 3.3491127, 7.490504, 3.9978018
241, 472385490, 0.21168602, 0.5490445, 0.78461736, 0.19524768, 8.655756, 1.0893816, 5.047118
242, 472402157, 0.20485047, 0.5543612, 0.7841207, 0.18942456, 6.595188, 2.0531478, 0.8699627
243, 472418824, 0.2046071, 0.5578669, 0.7818557, 0.18875638, 3.5269876, 1.5228554, -0.30514908
244, 472435491, 0.20990871, 0.5599851, 0.77793545, 0.1928174, 2.2801561, 1.487403, -1.4357338
245, 472452158, 0.21651433, 0.5597028, 0.7732421, 0.20483664, 0.47966462, 2.7521956, -1.9022703
246, 472468825, 0.22413215, 0.55657685, 0.7676366, 0.22522916, 0.2157112, 2.1313746, -2.3637424
247, 472485492, 0.23592192, 0.55168474, 0.7596313, 0.2509029, 0.51109725, 0.56818366, -1.9967141
248, 472502159, 0.24969925, 0.54454756, 0.7494075, 0.28198192, -0.70921165, 0.34651822, -0.9209976
249, 472518826, 0.26518816, 0.5344529, 0.7371781, 0.3171921, -0.6758399, -1.22178, -0.3223095
250, 472535493, 0.28457555, 0.5224394, 0.72222793, 0.3527996, -1.4385191, -3.2279792, -0.26812935
251, 472552160, 0.30816126, 0.50969267, 0.7037964, 0.3872049, -2.8859935, -2.89543, 0.67654324
252, 472568827, 0.33333725, 0.49616247, 0.6821906, 0.4211084, -4.42715, -1.5436141, 1.4658928
253, 472585494, 0.3573668, 0.48085764, 0.6586215, 0.45529065, -5.609565, -0.9446954, 2.5829315
254, 472602161, 0.37936792, 0.46394545, 0.6337093, 0.4891362, -6.3448415, -0.4326833, 2.280923
255, 472618828, 0.39773774, 0.44385275, 0.6091067, 0.52325475, -7.4776106, -0.1840663, 1.7324381
256, 472635495, 0.41425923, 0.42243037, 0.58451605, 0.5552386, -7.4284277, -2.8791847, 0.40723038
257, 472652162, 0.43043718, 0.40434164, 0.5596491, 0.5814049, -7.983704, -6.090553, -0.7874069
258, 472668829, 0.4461308, 0.39171538, 0.53426284, 0.6017448, -7.366138, -3.9395518, -0.41234684
259, 472685496, 0.45784685, 0.37860137, 0.51191443, 0.62047404, -8.236936, -2.4152517, -0.047888756
260, 472702163, 0.46590266, 0.36535522, 0.49414265, 0.6366164, -6.777521, -3.4649627, -1.4663029
261, 472718830, 0.47092348, 0.35347748, 0.48151997, 0.64917666, -5.6493573, -3.9388945, -3.1353722
262, 472735497, 0.47316122, 0.3444891, 0.47393537, 0.65790445, -4.578005, -4.071392, -4.019798
263, 472752164, 0.47224948, 0.3395097, 0.47174817, 0.6627023, -5.0256886, -2.88972, -4.5316877
264, 472768831, 0.468049, 0.3372295, 0.47558975, 0.6640992, -5.364366, -2.183368, -3.6728945
265, 472785498, 0.46103117, 0.33716965, 0.48431772, 0.66272956, -5.993127, -2.8264945, -4.017195
266, 472802165, 0.45255718, 0.34043157, 0.49582925, 0.6583758, -6.0465145, -2.942706, -3.0620284
267, 472818832, 0.44298348, 0.34580448, 0.5086654, 0.6522665, -5.310068, -2.7853317, -1.4696054
268, 472835499, 0.4392443, 0.35303742, 0.51513034, 0.6458148, 5.4704123, -2.279928, 11.897892
269, 472852166, 0.43010873, 0.34951165, 0.52385104, 0.64686567, -1.9209341, 1.3031416, 6.1099663
270, 472868833, 0.4162899, 0.34392977, 0.5378954, 0.647372, -3.114729, -3.2665908, -4.567931
271, 472885500, 0.40561095, 0.3433433, 0.55120593, 0.6432529, -2.008348, -7.404342, -0.7556734
272, 472902167, 0.3974671, 0.34714958, 0.56097245, 0.6378276, -4.434883, -0.9755983, 0.3857479
273, 472918834, 0.38601297, 0.34881932, 0.57245576, 0.6337353, -5.4733996, 2.4625852, 0.013839722
274, 472935501, 0.37309858, 0.3467067, 0.5840621, 0.63203675, -3.7260013, 0.044533614, 0.87346554
275, 472952168, 0.36396778, 0.34802687, 0.59250355, 0.6287698, -0.764362, -3.4800062, -1.4534273
276, 472968835, 0.36099905, 0.356652, 0.5965171, 0.62181437, -0.77418137, -4.0181737, 0.43584538
277, 472985502, 0.36195472, 0.36893696, 0.59769446, 0.6128969, -1.0918818, -3.0248277, 0.30276012
278, 473002169, 0.36343718, 0.380133, 0.59887034, 0.6039649, -0.75254667, -0.41962054, 0.83653736
279, 473018836, 0.36165464, 0.38645187, 0.60214, 0.5977419, -0.71192473, 2.5375419, 1.4967403
280, 473035503, 0.35603535, 0.38793173, 0.6077514, 0.5944686, -1.1005372, 1.4961125, 0.7099161
281, 473052170, 0.3505165, 0.38829526, 0.61339515, 0.5917081, -0.6849242, -0.296618, 0.18151474
282, 473068837, 0.34772623, 0.39094836, 0.61705524, 0.5877887, -0.603732, -0.55786943, -0.15912628
283, 473085504, 0.347402, 0.39579695, 0.61900985, 0.5826579, -0.7956297, -0.10246392, 0.15141296
284, 473102171, 0.34770617, 0.40075764, 0.6203924, 0.57759315, -0.49743715, 0.6413791, 0.28513718
285, 473118838, 0.34651566, 0.40371898, 0.62264013, 0.57381517, -0.54829115, 0.97382283, 0.09391594
286, 473135505, 0.34362414, 0.4044389, 0.6260869, 0.5712915, -0.040243506, 0.007441752, 0.16637516
287, 473152172, 0.34109095, 0.40555462, 0.6293025, 0.56847835, 0.7394403, -0.9827796, -0.118891716
288, 473168839, 0.33973753, 0.40858045, 0.6316193, 0.56453913, 0.6360019, -0.37761453, -0.6993427
289, 473185506, 0.33897385, 0.4128643, 0.6335184, 0.55973303, -0.031643398, 0.7862825, -0.5358763
290, 473202173, 0.33731785, 0.41683406, 0.63621956, 0.55470496, 0.40779468, 1.0922455, -0.7577801
291, 473218840, 0.33422732, 0.420118, 0.6399403, 0.54979664, 1.2844028, 0.8702592, -0.8985863
292, 473235507, 0.32991943, 0.4231809, 0.6444793, 0.54472387, 0.7978761, 0.65965533, -1.097475
293, 473252174, 0.32456228, 0.42575175, 0.6498978, 0.5394759, 0.6758455, 0.31331086, -0.38019562
294, 473268841, 0.31900218, 0.42884782, 0.6556181, 0.5333843, 0.9463241, -0.414293, -0.55669975
295, 473285508, 0.3136385, 0.4328774, 0.66129416, 0.52625555, 0.66925544, 0.07347586, -0.2121687
296, 473302175, 0.30762997, 0.4365976, 0.66744953, 0.51890695, 0.3138815, 0.4895012, -0.058343887
297, 473318842, 0.301268, 0.44023746, 0.6739532, 0.51109964, 0.2442297, -0.1359009, 0.0621624
298, 473335509, 0.294861, 0.44431332, 0.68062925, 0.50238764, -0.34561673, 0.07008148, 0.70781326
299, 473352176, 0.28864306, 0.44888106, 0.68701977, 0.4931547, -0.52545404, 0.5818314, 1.3411789
300, 473368843, 0.28331777, 0.45381302, 0.69354117, 0.48248544, -0.12570794, -1.3345617, 2.007454
301, 473385510, 0.27783623, 0.45869857, 0.7001296, 0.47141078, 0.15066852, -0.7011417, 2.0935116
302, 473402177, 0.27171, 0.46287766, 0.7074797, 0.4597798, 1.1706743, -0.90211874, 2.1496887
303, 473418844, 0.26532072, 0.46709082, 0.71515524, 0.4472035, 1.6106093, -0.08320538, 1.8034439
304, 473435511, 0.25873387, 0.47195542, 0.7232201, 0.43275234, 3.605502, 0.20166703, 1.6710672
305, 473452178, 0.25284243, 0.4784766, 0.7308813, 0.415873, 5.59896, 1.2256112, 0.8674364
306, 473468845, 0.24731974, 0.48684505, 0.7382871, 0.3959216, 7.3858204, 3.6607947, 1.2520199
307, 473485512, 0.23911561, 0.49608344, 0.7460138, 0.37442675, 9.787264, 2.7969835, 2.1327314
308, 473502179, 0.23312186, 0.5090242, 0.7515687, 0.34885505, 14.989233, -0.21656573, 2.41405
309, 473518846, 0.23652677, 0.52763826, 0.7522991, 0.31576258, 18.007338, 0.7823955, 1.9943914
310, 473535513, 0.24699487, 0.5478908, 0.74977756, 0.27685663, 14.704749, 2.2749074, 1.1633978
311, 473552180, 0.26277816, 0.5648172, 0.7465866, 0.2335478, 8.094957, 5.814611, 0.117731094
312, 473568847, 0.27696547, 0.5771281, 0.7432569, 0.19439475, 4.6235123, 11.114126, 4.0483637
313, 473585514, 0.27556974, 0.58141935, 0.7453058, 0.17475387, 4.72886, 13.708019, 1.7427464
314, 473602181, 0.2572185, 0.5779683, 0.75403005, 0.17673987, 2.9590116, 11.157912, -4.35892
315, 473618848, 0.2349122, 0.57327694, 0.76247406, 0.18657443, -1.6708755, 2.801256, 2.8908463
316, 473635515, 0.224089, 0.5722609, 0.76558065, 0.19024909, 0.37467164, -4.977816, 3.0596428
317, 473652182, 0.22856693, 0.5732309, 0.7635281, 0.19024979, 2.3980026, -1.1749524, -3.1721244
318, 473668849, 0.23520616, 0.57096326, 0.7611003, 0.19852526, 1.7374059, 3.8212035, -4.2254567
319, 473685516, 0.23871873, 0.5659285, 0.7581624, 0.21894106, -0.53622276, 4.3124723, -5.2936177
320, 473702183, 0.2394877, 0.5578639, 0.7548491, 0.24828069, -2.0050585, 2.620321, -4.0934486
321, 473718850, 0.24343675, 0.54709315, 0.74968535, 0.28179157, -0.6023333, -0.7078241, -2.6387758
322, 473735517, 0.25432122, 0.53569883, 0.7404823, 0.3162917, 0.7454622, -3.1578882, -2.0794516
323, 473752184, 0.2729977, 0.5247756, 0.7264359, 0.34982938, -0.03341161, -3.945597, -2.2533116
324, 473768851, 0.297435, 0.51433194, 0.70777136, 0.38218004, -1.1692908, -4.3607693, -1.1502666
325, 473785518, 0.32454374, 0.50348514, 0.6856183, 0.41365263, -2.4937108, -3.285146, -0.44563484
326, 473802185, 0.35282612, 0.4919628, 0.6602267, 0.44451544, -2.6708148, -1.9274416, 0.9606962
327, 473818852, 0.38107672, 0.47881985, 0.63253486, 0.47478288, -4.08621, -1.4971992, 2.8542242
328, 473835519, 0.40793148, 0.46471596, 0.602894, 0.50413966, -4.8249555, -1.8496177, 3.257184
329, 473852186, 0.43094277, 0.44952628, 0.5726084, 0.53323627, -5.083785, -0.80693966, 2.5852509
330, 473868853, 0.44850042, 0.43128395, 0.5441813, 0.56277436, -6.45808, -1.2830988, 1.8552017
331, 473885520, 0.46305498, 0.41364378, 0.5172914, 0.5889783, -5.778025, -3.6563048, 0.97162914
332, 473902187, 0.4762046, 0.39866152, 0.4917613, 0.61030805, -7.5456796, -3.4131625, 1.0447645
333, 473918854, 0.48621428, 0.38193023, 0.4712481, 0.6290129, -8.560089, -2.184235, 0.36844444
334, 473935521, 0.49230877, 0.36527276, 0.45750502, 0.6441305, -6.687461, -2.555304, -4.0458593
335, 473952188, 0.49308664, 0.35431823, 0.4513536, 0.6539197, -4.8183284, -1.7593784, -6.5205636
336, 473968855, 0.48835316, 0.3492731, 0.45431754, 0.6581201, -4.2066855, -1.3614532, -6.968271
337, 473985522, 0.47925472, 0.3492883, 0.46580747, 0.65676713, -5.8176985, -1.1757523, -7.2789555
338, 474002189, 0.46642372, 0.35279328, 0.48313087, 0.65159595, -7.763049, -1.1584991, -5.096572
339, 474018856, 0.45410913, 0.35743117, 0.4994848, 0.6454066, 0.9745496, 1.4273711, 6.8992767
340, 474035523, 0.43513888, 0.34609795, 0.5204242, 0.6481018, -5.7867026, -0.41812456, 13.8500805
341, 474052190, 0.4114487, 0.33294836, 0.5442133, 0.65091795, -0.92150706, -7.0656443, -5.91393
342, 474068857, 0.39311165, 0.33362398, 0.56463814, 0.64447576, -3.7439773, -11.1473875, -4.5377264
343, 474085524, 0.37840536, 0.34377292, 0.58105075, 0.63325864, -8.842444, -0.6278361, 1.8642378
344, 474102191, 0.3550467, 0.34212306, 0.601267, 0.62879163, -9.310611, 3.7172935, 2.1641684
345, 474118858, 0.3344064, 0.33758703, 0.61903596, 0.6253067, -2.9450302, -8.127478, -0.6918917
346, 474135525, 0.3290656, 0.34869283, 0.62650645, 0.61451244, -1.0571378, -8.550733, -1.7132788
347, 474152192, 0.32795605, 0.36372572, 0.62960315, 0.6031211, -4.318925, -1.6178764, 2.5192642
348, 474168859, 0.32483143, 0.37285015, 0.6332656, 0.59535605, -5.609645, 1.8892915, 2.4148417
349, 474185526, 0.31560302, 0.3720596, 0.64033204, 0.5932522, -3.086169, 1.0547429, 1.1071177
350, 474202193, 0.30709305, 0.37036687, 0.6469165, 0.5916317, 1.6141716, -3.4167008, 1.5435562
351, 474218860, 0.30647698, 0.37713987, 0.64902085, 0.58533424, 0.41145718, -3.012415, 0.28716755
352, 474235527, 0.30834743, 0.38630345, 0.64917195, 0.5781646, -2.8679485, 2.1817424, 1.264782
353, 474252194, 0.3062663, 0.38849944, 0.6517478, 0.574892, -2.5633183, 2.468034, 0.6820164
354, 474268861, 0.3044755, 0.38931423, 0.65457374, 0.57207435, 0.2936274, -0.7421055, 0.048591614
355, 474285528, 0.30477366, 0.3930914, 0.6559135, 0.56778204, 0.69892335, -0.32768396, -0.3131237
356, 474302195, 0.30485716, 0.39689073, 0.65743035, 0.56332225, 0.7868684, 1.1927452, -0.23931885
357, 474318862, 0.30371907, 0.39959237, 0.6599143, 0.55910695, 1.1926879, 0.7883932, -0.39160728
358, 474335529, 0.30299997, 0.40368932, 0.6622397, 0.5537794, 1.8460563, -0.24787542, -0.37920952
359, 474352196, 0.30332756, 0.41001, 0.6643481, 0.5463813, 1.3759811, -0.6726562, -0.5973892
360, 474368863, 0.30296108, 0.41640654, 0.6671117, 0.53832054, 1.0640664, -0.07700882, -0.7310257
361, 474385530, 0.30167013, 0.42207915, 0.6707581, 0.53003293, 1.2236521, -0.41735178, -0.53003407
362, 474402197, 0.29985765, 0.4278407, 0.6747626, 0.5212871, 0.65386724, 0.6676785, 0.51738644
363, 474418864, 0.29677796, 0.43271655, 0.67948306, 0.51282454, 0.36521524, 0.7783477, 0.7831497
364, 474435531, 0.29402906, 0.43827185, 0.6841498, 0.503399, 1.1512759, 0.53709817, 0.80928326
365, 474452198, 0.29111034, 0.44428486, 0.6892728, 0.4927226, 1.3518189, 0.2250857, 0.48726654
366, 474468865, 0.28831473, 0.4507198, 0.69468313, 0.48077938, 2.108071, 0.26574528, 0.9700813
367, 474485532, 0.28500527, 0.45700535, 0.7007776, 0.4677986, 2.3409986, 0.37695995, 1.0412807
368, 474502199, 0.28059113, 0.46290764, 0.7077361, 0.45398417, 2.8839667, 0.961764, 0.9158335
369, 474518866, 0.27438805, 0.46792433, 0.7158152, 0.4397426, 3.3121266, 1.4766598, 0.46926212
370, 474535533, 0.26663268, 0.47275782, 0.7246018, 0.42469516, 3.7155824, 1.0955375, 0.6172571
371, 474552200, 0.25889063, 0.47879797, 0.73316276, 0.40768525, 5.030784, 0.7922353, 0.94692135
372, 474568867, 0.25220788, 0.48699299, 0.7408957, 0.38769785, 7.207432, 0.98313, 0.22044086
373, 474585534, 0.24884392, 0.49769187, 0.74690485, 0.36403215, 12.060157, 2.0067115, -0.6689291
374, 474602201, 0.24850239, 0.51197606, 0.750571, 0.33582297, 12.646592, 3.1253543, 0.89807224
375, 474618868, 0.25203907, 0.5282797, 0.75168496, 0.30393004, 18.452135, 1.000014, 1.4457188
376, 474635535, 0.261451, 0.547245, 0.748932, 0.26697177, 15.091331, 3.826966, -1.1006899
377, 474652202, 0.26796523, 0.5640945, 0.7475191, 0.22630548, 7.1930795, 12.397072, -1.6034441
378, 474668869, 0.2610528, 0.5701709, 0.75333863, 0.19810203, 8.030392, 15.140597, 5.656518
379, 474685536, 0.24832888, 0.56872624, 0.7617151, 0.186226, 9.092164, 11.026553, 0.91818905
380, 474702203, 0.22470583, 0.5644031, 0.771773, 0.18796176, -1.0745305, 9.764101, 4.0529537
381, 474718870, 0.20382172, 0.56137687, 0.7790775, 0.1906771, 2.5017135, -2.0728998, 5.3175898
382, 474735537, 0.20306553, 0.56080663, 0.7800456, 0.18919872, 7.176097, -3.5539205, -1.8778462
383, 474752204, 0.21172802, 0.5608066, 0.7771807, 0.1914791, 3.369872, 1.3200188, -3.5821447
384, 474768871, 0.22310099, 0.55938, 0.7724826, 0.20148847, 0.623479, 2.3211377, -3.2576814
385, 474785538, 0.2326047, 0.55568796, 0.7670046, 0.22094557, -1.6503849, 3.1389015, -2.8348455
386, 474802205, 0.2418359, 0.54988325, 0.7599135, 0.24835855, -0.82744855, 1.4951557, -3.4323702
387, 474818872, 0.25615916, 0.54311174, 0.7492572, 0.27934358, 0.55038667, -0.34204936, -3.31523
388, 474835539, 0.2750332, 0.5349182, 0.73518884, 0.31260726, -1.3079448, -0.42557153, -1.2015829
389, 474852206, 0.2952104, 0.5246316, 0.71812254, 0.34916952, -1.529117, -1.524478, -0.35600662
390, 474868873, 0.31790528, 0.5121808, 0.69781923, 0.38686234, -2.2470686, -2.4696362, 0.5596466
391, 474885540, 0.3434635, 0.49878633, 0.67392254, 0.42317906, -3.6490622, -2.5675428, 0.84185314
392, 474902207, 0.3707679, 0.48479745, 0.64671767, 0.4574557, -3.932427, -1.5174942, 1.7232056
393, 474918874, 0.39658004, 0.46958733, 0.61722803, 0.49117047, -5.139658, -0.41214, 2.5032072
394, 474935541, 0.41877136, 0.45148194, 0.5871025, 0.5254639, -6.3755507, -0.59956545, 3.4410448
395, 474952208, 0.43783924, 0.4303871, 0.5569271, 0.5593771, -6.8682117, -2.139535, 3.4624538
396, 474968875, 0.45554835, 0.4091846, 0.5262615, 0.58999944, -6.5950913, -4.86396, 2.3437195
397, 474985542, 0.47244874, 0.39075926, 0.4953414, 0.61542094, -7.3468957, -5.6172314, 1.2682285
398, 475002209, 0.48662087, 0.37390643, 0.46665302, 0.6368956, -7.7723546, -4.6199856, -0.11142254
399, 475018876, 0.49645844, 0.35941127, 0.44257814, 0.6545869, -5.656149, -4.5169263, -3.3124394
400, 475035543, 0.5006305, 0.34948796, 0.42701852, 0.66700023, -3.668491, -2.8912132, -7.1296144
401, 475052210, 0.49867564, 0.34381378, 0.42478848, 0.6728122, -3.2653694, -1.3101684, -8.964349
402, 475068877, 0.49153677, 0.3414542, 0.43455303, 0.6730313, -6.347156, -1.2712443, -7.673648
403, 475085544, 0.47953573, 0.34035793, 0.45268583, 0.6702869, -8.548618, -0.5751266, -5.450688
404, 475102211, 0.46345264, 0.33876422, 0.47615355, 0.6661344, -9.001219, -2.3945289, -3.5030217
405, 475118878, 0.44618353, 0.34040326, 0.49945867, 0.65999544, -8.014956, -4.0826144, -2.0179915
406, 475135545, 0.4374853, 0.34833997, 0.5113362, 0.6525396, 7.9017696, -3.9710417, 15.679396
407, 475152212, 0.42253202, 0.34493583, 0.52453125, 0.65372765, -6.754825, -0.27077857, 7.6672783
408, 475168879, 0.4052241, 0.34309977, 0.54292476, 0.65062714, -3.9877737, -6.66659, -8.456582
409, 475185546, 0.394772, 0.3492493, 0.55696183, 0.6418569, -3.0544205, -7.1984324, 0.47928715
410, 475202213, 0.38180482, 0.35602942, 0.57020104, 0.6343075, -10.408723, 4.364626, 8.792877E-4
411, 475218880, 0.35998836, 0.35170978, 0.58910865, 0.63219196, -7.777755, 2.5935867, 0.2302208
412, 475235547, 0.340992, 0.3460609, 0.60565084, 0.63020664, -1.0064172, -6.1837745, 2.1835394
413, 475252214, 0.33338496, 0.35334337, 0.6137949, 0.6223067, 0.34781635, -5.7311196, -1.090086
414, 475268881, 0.3313823, 0.36630437, 0.6176108, 0.6120219, -2.4478755, -1.843994, 0.8114815
415, 475285548, 0.32908595, 0.37557206, 0.62240595, 0.60271555, -2.865949, 0.07375212, 0.8348141
416, 475302215, 0.3231936, 0.37952211, 0.6285798, 0.59699523, -0.7229569, 0.5517555, 1.1118355
417, 475318882, 0.31520572, 0.3807743, 0.63551474, 0.593114, 1.0050645, -1.5912743, 1.1215105
418, 475335549, 0.3093401, 0.3833818, 0.6408826, 0.58873063, 0.42650652, -2.3077462, 0.43649578
419, 475352216, 0.30860263, 0.39068612, 0.6434867, 0.5814298, -0.65743923, -1.9647504, -0.22591972
420, 475368883, 0.3110668, 0.40107608, 0.64381015, 0.5726175, -2.140515, 0.035931885, 0.33834267
421, 475385550, 0.31232765, 0.40837154, 0.64504516, 0.56533873, -2.0895178, 1.232067, 0.39521885
422, 475402217, 0.31123483, 0.41184738, 0.647734, 0.5603234, -0.94140214, 0.63265556, 0.20977688
423, 475418884, 0.310466, 0.41505045, 0.6500728, 0.5556585, 0.22519645, 0.10720788, 0.2956667
424, 475435551, 0.31024677, 0.41888225, 0.6517421, 0.5509303, -0.6516013, 0.97078156, 0.11538887
425, 475452218, 0.3095293, 0.4221326, 0.65371865, 0.5464929, -0.1854382, 0.8902958, 0.21280098
426, 475468885, 0.30854046, 0.42538527, 0.6561037, 0.5416503, 0.9269015, -0.06653109, -0.54968643
427, 475485552, 0.307252, 0.42918622, 0.6586884, 0.53621995, 1.3798993, 0.35481742, -0.7052069
428, 475502219, 0.30532512, 0.43321943, 0.66169304, 0.53034574, 1.165694, 1.0571703, -0.80652046
429, 475518886, 0.30234638, 0.43676746, 0.66552925, 0.52430785, 0.94626, 0.93330485, -0.21146774
430, 475535553, 0.29933515, 0.44116905, 0.66974586, 0.51692927, 1.5398436, 0.13364913, -0.39815903
431, 475552220, 0.29637635, 0.4468891, 0.6739351, 0.50820243, 1.8918912, 0.11605195, -0.051430702
432, 475568887, 0.29340404, 0.452981, 0.6787794, 0.49798357, 1.8633066, -0.3093719, 0.42597866
433, 475585554, 0.28888854, 0.45783728, 0.684851, 0.4877647, 0.9597579, 0.19578193, 1.0021143
434, 475602221, 0.28333303, 0.46151918, 0.6918816, 0.47752416, 1.2877147, -0.60548675, 2.1419992
435, 475618888, 0.27777326, 0.46547693, 0.69892067, 0.46657288, 1.3760432, -0.45951983, 2.6269178
436, 475635555, 0.27220735, 0.46961188, 0.7061943, 0.4546037, 2.1303222, -0.055822585, 2.5222816
437, 475652222, 0.26568913, 0.4733622, 0.71391726, 0.4423423, 2.5923839, 0.99374866, 2.4768267
438, 475668889, 0.2589049, 0.47760227, 0.72191125, 0.42862064, 4.3929076, 1.1377125, 1.8435612
439, 475685556, 0.2526503, 0.48395336, 0.7296459, 0.41180223, 6.028063, 1.3991477, 0.77359486
440, 475702223, 0.2472541, 0.4931797, 0.7365005, 0.39142504, 8.889785, 2.1927192, 0.22386551
441, 475718890, 0.24460745, 0.50538963, 0.7417184, 0.36689103, 13.7590475, 3.7705383, -0.04943943
442, 475735557, 0.24288225, 0.5206368, 0.7453638, 0.33820903, 14.528302, 1.2228988, 1.1429758
443, 475752224, 0.24919596, 0.5402511, 0.7445741, 0.30273208, 21.64998, 0.6930989, 1.0333128
444, 475768891, 0.26223174, 0.5615415, 0.7397579, 0.26205158, 14.288169, 3.7909267, -2.3828092
445, 475785558, 0.27222362, 0.57909024, 0.73658097, 0.21909927, 5.326126, 11.821969, -1.2960443
446, 475802225, 0.26867014, 0.58544403, 0.74098414, 0.1897923, 6.977956, 15.495292, 6.186095
447, 475818892, 0.25597343, 0.5818866, 0.7504216, 0.1809977, 8.266355, 10.73116, -0.9526348
448, 475835559, 0.23121512, 0.5752534, 0.76184833, 0.18766263, -3.631359, 11.051389, 2.9230375
449, 475852226, 0.20870045, 0.5690769, 0.77107483, 0.19505547, 0.982419, -2.9178586, 3.1454105
450, 475868893, 0.20689298, 0.56452614, 0.7740835, 0.19826055, 6.6575437, -2.8824458, -3.331717
451, 475885560, 0.21148504, 0.5589378, 0.7747021, 0.20665492, 1.7958678, 2.4086566, -3.600338
452, 475902227, 0.21982156, 0.55151576, 0.7732524, 0.22270288, 0.06931778, 2.5036926, -4.0312295
453, 475918894, 0.22834536, 0.54185325, 0.7703601, 0.24658865, -1.7245681, 3.1022685, -2.661408
454, 475935561, 0.23742305, 0.53002, 0.7652079, 0.27780065, -1.6292443, 1.438661, -2.1882453
455, 475952228, 0.2520725, 0.51762074, 0.7555583, 0.31251746, 0.81207097, -0.94178444, -2.445973
456, 475968895, 0.27458552, 0.5062242, 0.74007094, 0.34733552, -0.19917038, -2.9077935, -0.8859129
457, 475985562, 0.30189005, 0.49602297, 0.7190455, 0.3818433, -2.1321092, -4.905319, 0.0807085
458, 476002229, 0.33369094, 0.48737586, 0.6923755, 0.4144137, -2.976298, -4.361, 0.6578827
459, 476018896, 0.36801365, 0.4808541, 0.6602721, 0.44428965, -3.4353876, -2.6122844, 0.89427376
460, 476035563, 0.4006069, 0.47502702, 0.62457657, 0.47304812, -4.2630215, -1.0290465, 2.4604483
461, 476052230, 0.42760915, 0.46673906, 0.5885619, 0.50289863, -4.565837, 0.40614092, 2.689042
462, 476068897, 0.44752863, 0.45275626, 0.55524594, 0.53519994, -5.663004, 0.3135602, 3.4628553
463, 476085564, 0.46202904, 0.43412602, 0.52495885, 0.56788117, -6.3556547, -1.9267671, 2.955554
464, 476102231, 0.47229812, 0.4135507, 0.4982282, 0.5980686, -6.915352, -4.0432434, 1.2136307
465, 476118898, 0.48211402, 0.39265612, 0.47473285, 0.622915, -7.6444516, -3.1265798, 0.9087229
466, 476135565, 0.4881998, 0.36712286, 0.4584836, 0.6455089, -9.082995, -2.751559, 0.09600639
467, 476152232, 0.4911848, 0.34287313, 0.44759783, 0.6639569, -5.56001, -6.8539658, -4.5732045
468, 476168899, 0.4925036, 0.33414102, 0.43873638, 0.6732812, -3.193175, -6.2498302, -8.676792
469, 476185566, 0.48992237, 0.33425933, 0.4384692, 0.67527705, -4.420475, -0.63311934, -7.1978884
470, 476202233, 0.4833516, 0.33612087, 0.44920078, 0.67202663, -6.6191564, -0.81167716, -6.906721
471, 476218900, 0.47224104, 0.3394585, 0.46700978, 0.6660821, -7.994597, -1.5739541, -5.387028
472, 476235567, 0.45681065, 0.34250394, 0.48909873, 0.6593972, -8.857004, -2.0046496, -3.28858
473, 476252234, 0.44191945, 0.3459174, 0.50977355, 0.6520632, -3.4646819, -1.9305944, 2.3091278
474, 476268901, 0.43470666, 0.3471062, 0.51871866, 0.6492194, 2.968708, -1.7938755, 20.362757
475, 476285568, 0.41754946, 0.3399592, 0.5341935, 0.6517091, -4.402152, -1.7705731, -4.220417
476, 476302235, 0.40239573, 0.33898336, 0.55159324, 0.64724034, -4.93993, -7.728808, -5.9601936
477, 476318902, 0.393919, 0.3456244, 0.56297123, 0.6390948, -4.9048615, -4.3611355, 2.8673353
478, 476335569, 0.3792736, 0.35047045, 0.5766344, 0.633105, -9.72043, 5.290352, -0.8216953
479, 476352236, 0.35921052, 0.3447972, 0.5948336, 0.6310805, -4.176179, -1.0410664, 2.629099
480, 476368903, 0.34507552, 0.34353724, 0.6080685, 0.6270286, 0.56705236, -6.2451267, -0.15656471
481, 476385570, 0.33900356, 0.35200635, 0.61478215, 0.6190462, -0.1836568, -4.2467422, -0.17310905
482, 476402237, 0.3367384, 0.36385602, 0.6186144, 0.60954034, -3.4116404, -1.3339436, -1.0056334
483, 476418904, 0.3337329, 0.3713946, 0.62343794, 0.6016817, -2.3295877, 1.8290786, 1.9636106
484, 476435571, 0.32657433, 0.37339026, 0.63001895, 0.59750485, -0.40747195, 0.21022165, 1.0093021
485, 476452238, 0.3209118, 0.37602347, 0.63573134, 0.59285307, 1.1753529, -2.8428187, 0.9316082
486, 476468905, 0.31807277, 0.38119435, 0.6394948, 0.58700454, -0.77378887, -1.6761322, -0.030043602
487, 476485572, 0.31802106, 0.38841808, 0.6415102, 0.58005655, -0.7057656, -1.2706571, 0.30680656
488, 476502239, 0.32011592, 0.3973852, 0.64202625, 0.5722065, -0.94997275, -0.14891952, 0.21892643
489, 476518906, 0.3212964, 0.40425846, 0.64302284, 0.56557274, -1.0514488, 1.9471476, 0.4341364
490, 476535573, 0.31975728, 0.4072, 0.6454937, 0.5615057, -1.1731766, 2.2080324, 0.13834667
491, 476552240, 0.31710017, 0.40866774, 0.6487344, 0.55820173, -0.03163401, 0.33427045, -0.16048908
492, 476568907, 0.31601015, 0.41231456, 0.6512075, 0.55323625, 1.0714862, -0.01862958, -0.20201492
493, 476585574, 0.315666, 0.41753843, 0.65343565, 0.54685056, 0.8644985, 0.37255844, -0.60540104
494, 476602241, 0.31451374, 0.42277712, 0.65622544, 0.54010737, 0.9935304, 0.32993037, -0.65049076
495, 476618908, 0.31237823, 0.42782506, 0.65993506, 0.5328025, 1.435682, 0.2546187, -0.9864731
496, 476635575, 0.3097269, 0.43314505, 0.66417825, 0.524718, 2.0249949, 0.48933938, -0.35605907
497, 476652242, 0.30666378, 0.43919852, 0.6686697, 0.51570356, 1.6477433, 0.82991, -0.15554619
498, 476668909, 0.3027341, 0.44512048, 0.6739942, 0.50592375, 1.5996811, 0.25918695, 0.54338455
499, 476685576, 0.29828116, 0.45092312, 0.6802066, 0.4949978, 2.1410687, -0.02621427, 0.9317398
500, 476702243, 0.2927508, 0.45648855, 0.68718654, 0.48342228, 2.08401, 0.17846951, 1.033392
501, 476718910, 0.28662026, 0.4618858, 0.69499135, 0.470643, 2.31502, 0.38362223, 1.6667595
502, 476735577, 0.27916107, 0.46674466, 0.70354, 0.45744637, 1.9871458, 0.5811773, 1.9275875
503, 476752244, 0.27099985, 0.47146142, 0.7124893, 0.44345185, 2.792497, 0.5173098, 2.3454008
504, 476768911, 0.26228213, 0.4766935, 0.7215223, 0.42823344, 2.9857368, 0.6340716, 1.9144487
505, 476785578, 0.25390026, 0.4829247, 0.73027503, 0.41112527, 5.086891, 1.2309712, 1.8698626
506, 476802245, 0.24676138, 0.49068633, 0.73829705, 0.39148486, 7.886739, 1.5914453, 0.79895496
507, 476818912, 0.2418752, 0.5007297, 0.7450898, 0.36825886, 9.251823, 4.0889287, 1.6449442
508, 476835579, 0.23744799, 0.5119982, 0.7512039, 0.34231052, 14.168562, 2.4491808, 2.4178486
509, 476852246, 0.24131937, 0.5282826, 0.752675, 0.31011274, 21.014019, 0.76555514, 0.7344837
510, 476868913, 0.2546958, 0.54862416, 0.74913585, 0.2700819, 17.324392, 2.5889118, -3.0259514
511, 476885580, 0.26785538, 0.5658028, 0.74598515, 0.22723156, 6.701893, 10.657257, -1.3741989
512, 476902247, 0.26959014, 0.57360697, 0.7483454, 0.19565931, 6.2733316, 14.529997, 5.9366693
513, 476918914, 0.2582283, 0.5711289, 0.7567038, 0.18584104, 7.6752214, 11.296742, 0.07057381
514, 476935581, 0.23614012, 0.5649431, 0.7672487, 0.19082336, 0.08128674, 9.819329, 9.95636E-4
515, 476952248, 0.21520051, 0.5605793, 0.7749622, 0.1971808, -0.72990584, -1.3890668, 4.494875
516, 476968915, 0.2146351, 0.5592677, 0.77596724, 0.19756912, 6.146799, -4.7284765, -1.9483542
517, 476985582, 0.22209276, 0.5566641, 0.7744637, 0.20251676, 2.7630546, 2.1100159, -3.272705
518, 477002249, 0.23063973, 0.5520671, 0.771311, 0.21705727, 0.94874173, 3.1170874, -4.2605615
519, 477018916, 0.23957187, 0.5449925, 0.7666827, 0.24040292, -0.85008395, 2.8270297, -3.148417
520, 477035583, 0.24964406, 0.535792, 0.760124, 0.26985902, -1.5022396, 0.9481455, -1.8562775
521, 477052250, 0.26463917, 0.5261448, 0.74938476, 0.30260146, 0.42956576, -1.7041814, -1.9471111
522, 477068917, 0.287313, 0.51781136, 0.7327408, 0.33529192, 0.6460226, -2.9502034, -2.1579795
523, 477085584, 0.31480172, 0.5107894, 0.7107095, 0.36727822, -1.9246347, -3.1129386, -0.19453812
524, 477102251, 0.3436067, 0.50272524, 0.68526876, 0.39951944, -3.1096249, -1.9695984, 0.25527763
525, 477118918, 0.37218472, 0.4937842, 0.6566918, 0.43176255, -3.1871016, -0.49483165, 1.0701065
526, 477135585, 0.39792627, 0.48248875, 0.6266909, 0.46489257, -4.5517163, 0.76891613, 3.15129
527, 477152252, 0.41904438, 0.46783462, 0.5968991, 0.49925083, -5.3140154, 0.18715757, 3.201849
528, 477168919, 0.43534103, 0.44938916, 0.5681377, 0.53455997, -6.2847896, -0.039656952, 2.5775318
529, 477185586, 0.44866055, 0.42893437, 0.54087365, 0.56761074, -6.1127563, -3.2952607, 0.9569082
530, 477202253, 0.46267852, 0.41279072, 0.51305157, 0.59356344, -6.1488824, -5.122628, -0.08978748
531, 477218920, 0.47514147, 0.39780182, 0.48675835, 0.6156845, -8.318073, -2.7945178, 1.7325325
532, 477235587, 0.4844177, 0.38129845, 0.46481296, 0.6355367, -8.386708, -3.2380044, -0.41195774
533, 477252254, 0.48982847, 0.36643156, 0.44874227, 0.65148544, -7.3730016, -4.46178, -4.22281
534, 477268921, 0.4909328, 0.35788614, 0.43974236, 0.6614653, -5.023617, -3.816861, -6.691059
535, 477285588, 0.48696393, 0.35478395, 0.44104654, 0.66519153, -5.0577874, -1.3348315, -8.000306
536, 477302255, 0.47762653, 0.35458773, 0.4525493, 0.66433924, -6.9732294, 0.08058324, -7.135033
537, 477318922, 0.46275818, 0.35384935, 0.47221455, 0.6615632, -8.410336, -1.0240234, -4.982432
538, 477335589, 0.44499204, 0.35411012, 0.4951005, 0.6568643, -7.400939, -3.6902056, -3.5961738
539, 477352256, 0.43563738, 0.35876778, 0.5086028, 0.65025854, 8.163328, -4.3499217, 18.284393
540, 477368923, 0.41626447, 0.34946796, 0.52689505, 0.65344065, -6.364144, -1.1285852, 5.223832
541, 477385590, 0.39800724, 0.34607238, 0.5471649, 0.64995533, -2.4897552, -10.028072, -8.237956
542, 477402257, 0.38869023, 0.3555973, 0.56078666, 0.63874567, -2.8572266, -8.228091, -0.9199276
543, 477418924, 0.3768509, 0.36765048, 0.57363033, 0.6275123, -13.3534355, 4.3988037, -0.36477852
544, 477435591, 0.3561347, 0.36569443, 0.5923109, 0.6233863, -6.9642344, -0.043755595, 1.5957355
545, 477452258, 0.34180698, 0.36675528, 0.60584694, 0.6177501, -0.6957104, -9.028344, 1.348547
546, 477468925, 0.34079581, 0.38158125, 0.6100608, 0.60505134, -0.34152356, -6.4077115, -1.2589417
547, 477485592, 0.3424771, 0.39771754, 0.61207014, 0.5915301, -3.9594734, 0.528136, 1.7064142
548, 477502259, 0.34072334, 0.40684387, 0.6159563, 0.58222914, -3.4822958, 2.0153363, 2.5607958
549, 477518926, 0.33498803, 0.40952313, 0.6221791, 0.577039, -1.5781848, 1.5092386, 1.3988771
550, 477535593, 0.32869765, 0.41051397, 0.6281631, 0.5734583, 1.1695163, -0.44909486, 1.2514172
551, 477552260, 0.3252998, 0.41391167, 0.6320444, 0.56866914, -0.23377544, 0.48489213, -0.1769476
552, 477568927, 0.32336277, 0.41777447, 0.6351207, 0.56349796, -2.010071, 1.6369575, -0.28944492
553, 477585594, 0.3208936, 0.42009333, 0.63827324, 0.5596103, -1.9160237, 1.866564, 0.17147732
554, 477602261, 0.31715098, 0.41999313, 0.6424711, 0.5570091, -0.89587647, 0.3967708, -0.28519535
555, 477618928, 0.31352162, 0.41955224, 0.6465113, 0.55471635, -0.6599551, -0.2829597, 0.073269844
556, 477635595, 0.3103273, 0.4194656, 0.6503242, 0.55211496, -0.63061154, -0.37010047, -0.13753033
557, 477652262, 0.30754948, 0.42005178, 0.6536016, 0.54934704, -0.058850516, -0.622519, 0.25519848
558, 477668929, 0.3058671, 0.42176145, 0.6563956, 0.54563224, 1.1187842, -1.1228874, -0.13495636
559, 477685596, 0.30435324, 0.42453623, 0.6591603, 0.5409741, 1.4853785, -0.5484291, -0.64009476
560, 477702263, 0.30199742, 0.42788044, 0.6624687, 0.5355917, 1.5964729, 0.51095074, -1.0362682
561, 477718930, 0.298625, 0.4311231, 0.6667121, 0.5295831, 2.0184722, 0.6192194, -0.7032566
562, 477735597, 0.29542968, 0.43569502, 0.6711562, 0.5219652, 2.0853107, 0.5068432, -0.26120853
563, 477752264, 0.29224855, 0.44151744, 0.6756658, 0.51296777, 1.6283582, 0.22668818, 0.39946938
564, 477768931, 0.28988767, 0.4487984, 0.6801356, 0.50196403, 1.8950517, -0.59597373, 1.1062288
565, 477785598, 0.2867985, 0.45593143, 0.6853833, 0.49003068, 2.0122375, -0.16382785, 1.017292
566, 477802265, 0.28185937, 0.46155792, 0.69218767, 0.47791532, 1.8428082, 0.19033983, 0.95728016
567, 477818932, 0.27500784, 0.465719, 0.7004118, 0.46573266, 2.27902, 0.30697113, 1.8631372
568, 477835599, 0.2670847, 0.46970293, 0.7092023, 0.4528623, 2.5340269, 0.15700512, 2.0589504
569, 477852266, 0.25910997, 0.47445467, 0.7178977, 0.43861705, 2.9682717, 0.3361036, 2.1508589
570, 477868933, 0.25129628, 0.47998548, 0.7264479, 0.4227822, 4.2503896, 1.0661483, 2.050849
571, 477885600, 0.24356823, 0.48687297, 0.73475385, 0.40468892, 5.9845967, 1.3450799, 1.1457844
572, 477902267, 0.23799825, 0.4962851, 0.74192053, 0.38290882, 10.477621, 2.4206038, 0.41166115
573, 477918934, 0.23369785, 0.50851935, 0.74777526, 0.3572572, 11.435416, 4.1526284, 1.4448338
574, 477935601, 0.23187736, 0.5230473, 0.7517879, 0.327836, 18.355446, 1.8344897, 2.3835697
575, 477952268, 0.24073806, 0.5428965, 0.7502971, 0.29046538, 21.971624, 1.2093437, -0.36640644
576, 477968935, 0.25788972, 0.5637758, 0.7452236, 0.24555793, 12.875847, 5.6846094, -1.9329219
577, 477985602, 0.27098984, 0.57802886, 0.7425503, 0.20266588, 6.082469, 15.631672, 1.4743414
578, 478002269, 0.26612717, 0.57915056, 0.748267, 0.18402396, 6.339751, 12.250511, 2.8262243
579, 478018936, 0.2528899, 0.57404965, 0.75642115, 0.18533169, 5.979016, 9.4845, -3.2827215
580, 478035603, 0.23276663, 0.5693435, 0.764021, 0.19479947, -6.6379685, 7.421758, 4.5269604
581, 478052270, 0.22434315, 0.566695, 0.7667574, 0.20153715, 4.7125535, -4.591603, -1.1321363
582, 478068937, 0.22957149, 0.56275177, 0.765729, 0.21041352, 5.3299265, 2.1132278, -2.3794641
583, 478085604, 0.23444879, 0.55633533, 0.7636048, 0.22899647, 0.57140875, 4.442908, -2.923222
584, 478102271, 0.23967965, 0.54836106, 0.7595909, 0.2547212, 0.8086006, 1.783645, -2.076385
585, 478118938, 0.24766813, 0.53895575, 0.75263655, 0.2858893, 1.1767634, 0.21917076, -1.8407578
586, 478135605, 0.26063862, 0.52962685, 0.7410031, 0.32013184, 1.1873184, -1.709738, -1.9111805
587, 478152272, 0.27777684, 0.51853937, 0.72635275, 0.35549396, -0.89401156, -2.7982557, 0.700943
588, 478168939, 0.29895744, 0.5059396, 0.7086474, 0.39048153, -1.1177349, -4.6075444, 1.2828445
589, 478185606, 0.3260733, 0.4958758, 0.68565404, 0.42150804, -1.8022153, -4.612357, -0.15686512
590, 478202273, 0.35659412, 0.4879117, 0.65751314, 0.44996274, -3.6534197, -1.791654, 1.4339552
591, 478218940, 0.3859218, 0.4782806, 0.6268312, 0.47895914, -4.871865, -1.0012838, 2.039506
592, 478235607, 0.413256, 0.466563, 0.5945768, 0.50796074, -5.0856504, -2.3195758, 1.9541407
593, 478252274, 0.43822044, 0.45374495, 0.5611573, 0.53589934, -5.5729256, -2.1737485, 1.3912382
594, 478268941, 0.459615, 0.43914646, 0.5280512, 0.5630931, -7.0992312, -2.3817065, 1.4658661
595, 478285608, 0.47709063, 0.42360994, 0.4954869, 0.5894397, -7.791869, -3.024906, 1.9142694
596, 478302275, 0.49121788, 0.40790725, 0.46556118, 0.6128432, -7.899523, -2.9132786, 0.6351166
597, 478318942, 0.50309736, 0.39122176, 0.44146574, 0.63162804, -8.530089, -2.674683, -1.8317885
598, 478335609, 0.5096194, 0.3732649, 0.42631668, 0.6474743, -7.406865, -2.4306033, -4.164146
599, 478352276, 0.51065725, 0.36017293, 0.41898763, 0.6587573, -5.413011, -2.2421, -7.1581955
600, 478368943, 0.5060866, 0.35308662, 0.4213867, 0.66456515, -4.996364, -1.3163111, -8.059379
601, 478385610, 0.49771234, 0.35007116, 0.43350208, 0.6646925, -6.3579407, -1.9666816, -7.0586233
602, 478402277, 0.4858261, 0.35066253, 0.45173505, 0.66102326, -7.7702436, -1.735097, -5.73662
603, 478418944, 0.4695987, 0.35117525, 0.47464868, 0.65640604, -8.4638, -1.3341055, -4.0889063
604, 478435611, 0.45303252, 0.35151315, 0.49685857, 0.6514132, -2.2556841, -0.766556, 3.5175104
605, 478452278, 0.44236493, 0.3462299, 0.5097997, 0.65157485, 0.35811916, -1.3345602, 23.211811
606, 478468945, 0.4197216, 0.33143213, 0.5308599, 0.6574051, -3.9988532, -1.5189562, -5.738536
607, 478485612, 0.4004691, 0.32696638, 0.55193514, 0.65428776, -2.761515, -8.24397, -6.381916
608, 478502279, 0.38887024, 0.33529204, 0.56536686, 0.6455437, -4.5008497, -4.815881, 2.3029566
609, 478518946, 0.37440637, 0.3431144, 0.5797921, 0.6371349, -8.718167, 2.564375, -0.5195303
610, 478535613, 0.35590956, 0.3425061, 0.59650046, 0.6326234, -5.2729993, -2.4971323, 1.5832748
611, 478552280, 0.343463, 0.3461266, 0.6083399, 0.62622637, -1.307293, -7.5083556, -1.0982962
612, 478568947, 0.3403924, 0.3591701, 0.6138022, 0.61512923, -0.09898629, -5.2624874, 0.1687727
613, 478585614, 0.3394439, 0.37282044, 0.61707073, 0.60416365, -2.528673, -0.40303516, 1.3696394
614, 478602281, 0.33613414, 0.3811669, 0.6219089, 0.5957873, -2.8635385, 2.28005, 0.89433956
615, 478618948, 0.3284777, 0.38323018, 0.62898594, 0.5912876, -1.7772247, 2.186187, 1.0366659
616, 478635615, 0.3200735, 0.3833157, 0.6361197, 0.5882016, -0.12624839, -0.93281704, 0.98114395
617, 478652282, 0.3149573, 0.38617614, 0.64131165, 0.5834351, -0.16286473, -2.3238723, -0.07072353
618, 478668949, 0.3138382, 0.39243323, 0.64420515, 0.5766358, -0.9079841, -1.6460904, 0.025474548
619, 478685616, 0.3150711, 0.40058222, 0.64546967, 0.568894, -1.441838, -0.54517883, 0.344285
620, 478702283, 0.315612, 0.40703523, 0.6469501, 0.56229377, -1.666271, 0.7871475, 0.6464062
621, 478718950, 0.31416953, 0.4104957, 0.64962924, 0.5574765, -0.5669831, 0.05448497, 0.13524437
622, 478735617, 0.31322014, 0.41387683, 0.6520626, 0.5526489, 0.24421227, -0.31416133, 0.18822956
623, 478752284, 0.31327343, 0.41839716, 0.653826, 0.5471038, 0.26784185, 0.13089746, 0.106749535
624, 478768951, 0.31368324, 0.42317978, 0.6555992, 0.5410347, 0.116367996, 0.52790093, 0.34212112
625, 478785618, 0.31427705, 0.42868018, 0.6572411, 0.53432655, 0.6964374, 0.37670347, -0.49478436
626, 478802285, 0.31398788, 0.43409237, 0.65953624, 0.52725196, 1.6483247, 0.67238444, -1.1280794
627, 478818952, 0.31244844, 0.43932578, 0.6627574, 0.51973915, 1.9031594, 1.6613876, -1.0385265
628, 478835619, 0.309363, 0.44403422, 0.6668255, 0.5123273, 1.7336192, 2.577158, -0.105903625
629, 478852286, 0.3046905, 0.44855607, 0.67195475, 0.5044257, 1.8500805, 0.93408823, -0.39135933
630, 478868953, 0.30033365, 0.45455799, 0.67728806, 0.49443406, 2.555867, 0.112008154, 0.1005106
631, 478885620, 0.29476118, 0.460281, 0.68386537, 0.48331422, 2.3598735, 0.1845171, 0.35650826
632, 478902287, 0.28687468, 0.46465307, 0.69203335, 0.47212055, 1.8325682, 0.35756284, 1.2353983
633, 478918954, 0.27782652, 0.46858472, 0.70120525, 0.45995584, 3.0579543, -0.31281555, 2.0866632
634, 478935621, 0.2679944, 0.47337297, 0.71058637, 0.44628644, 2.815735, 0.065094575, 1.4401617
635, 478952288, 0.25759825, 0.47884223, 0.7202133, 0.4308753, 4.241304, 0.43932724, 2.1302538
636, 478968955, 0.24696806, 0.48594907, 0.72962195, 0.41294014, 5.82179, 0.6146007, 1.7350512
637, 478985622, 0.23779462, 0.49578938, 0.7378462, 0.39145496, 9.64003, 1.4923303, 1.5232563
638, 479002289, 0.23123197, 0.50921065, 0.7443743, 0.36489803, 11.944101, 3.1440816, 2.603032
639, 479018956, 0.22674662, 0.5254696, 0.7490316, 0.33380616, 18.260958, 1.0075383, 3.4783392
640, 479035623, 0.23207006, 0.5467156, 0.7484284, 0.29514018, 21.836632, 1.0650312, 1.6901407
641, 479052290, 0.24868691, 0.5690519, 0.74324316, 0.24886084, 15.314034, 3.4742491, -1.0337839
642, 479068957, 0.26816115, 0.586584, 0.73701656, 0.20204587, 5.8833385, 13.675532, 0.78682995
643, 479085624, 0.27244505, 0.59272873, 0.7377194, 0.17384967, 5.4766827, 14.547598, 1.8183403
644, 479102291, 0.2580735, 0.58943975, 0.74570245, 0.17289864, 4.279777, 14.572873, -1.6199646
645, 479118958, 0.23299962, 0.5843979, 0.7551194, 0.1843697, -6.139408, 8.658091, 4.526515
646, 479135625, 0.21962664, 0.5800017, 0.7605369, 0.19223212, 3.9690585, -6.4072, 0.31807327
647, 479152292, 0.22585145, 0.5761085, 0.7602594, 0.19774503, 5.169159, -1.9140382, -3.699533
648, 479168959, 0.23749569, 0.57114244, 0.75731516, 0.20945935, 1.0776802, 3.0520103, -4.339814
649, 479185626, 0.24758545, 0.5636105, 0.7533493, 0.23133712, -1.365244, 4.0695086, -3.3433208
650, 479202293, 0.25445268, 0.552943, 0.74847674, 0.26324448, -1.9736979, 2.7902873, -2.320291
651, 479218960, 0.2645858, 0.5410586, 0.739713, 0.30013654, 0.15304469, -0.91701096, -2.0823717
652, 479235627, 0.28169435, 0.52904475, 0.72624534, 0.3366526, 0.08935646, -3.2489736, -1.3529491
653, 479252294, 0.3040429, 0.5181742, 0.7075829, 0.3720042, -1.6953762, -5.2585, -0.11546421
654, 479268961, 0.33067346, 0.5090524, 0.6839829, 0.40459305, -2.2335963, -5.0804744, -0.38026714
655, 479285628, 0.36093214, 0.5018528, 0.6556259, 0.43362862, -2.6164675, -2.9548414, 0.32383347
656, 479302295, 0.38990635, 0.49391565, 0.6248395, 0.46217242, -4.0645604, -0.34175935, 2.636178
657, 479318962, 0.41431865, 0.4828308, 0.59422445, 0.49205625, -4.5217, -0.37265992, 2.9317856
658, 479335629, 0.43439993, 0.46807003, 0.56472105, 0.5227853, -5.106595, -0.7889084, 2.7057714
659, 479352296, 0.4510166, 0.45022902, 0.53673345, 0.552994, -5.756076, -2.1143894, 1.8632288
660, 479368963, 0.46467075, 0.4324912, 0.5102017, 0.5802879, -6.064782, -3.7499278, 0.3227148
661, 479385630, 0.47678792, 0.41644558, 0.48554224, 0.60291165, -6.540709, -3.107057, 0.14347935
662, 479402297, 0.48623636, 0.39824954, 0.46524373, 0.6233196, -7.6293044, -2.2209065, 0.49234867
663, 479418964, 0.4919727, 0.3775909, 0.4512572, 0.6416869, -7.2099934, -3.421635, -2.1080852
664, 479435631, 0.49422824, 0.36096624, 0.44262904, 0.65538436, -5.2196193, -4.629875, -4.943918
665, 479452298, 0.4922642, 0.3504759, 0.44094402, 0.6636402, -5.0313144, -2.6842072, -5.7268267
666, 479468965, 0.48553586, 0.34364623, 0.4487702, 0.6669145, -5.802474, -0.96784014, -6.732026
667, 479485632, 0.47471666, 0.3399454, 0.46431968, 0.6659547, -7.8502436, -1.1359619, -6.453809
668, 479502299, 0.46034417, 0.3387518, 0.4848112, 0.6620393, -8.927069, -2.1964056, -4.9835477
669, 479518966, 0.44836712, 0.3433884, 0.5014411, 0.6554507, 1.1467111, -0.87187064, 6.496933
670, 479535633, 0.43513086, 0.34080625, 0.5157795, 0.6545925, -5.111147, -1.6054256, 14.59833
671, 479552300, 0.41844308, 0.33729756, 0.5336349, 0.65297544, -0.60062605, -6.267398, -4.8703837
672, 479568967, 0.40602753, 0.34434074, 0.5490341, 0.6443137, -1.5646175, -8.854138, -3.9368997
673, 479585634, 0.39615467, 0.35730672, 0.56109643, 0.63290715, -8.201205, 0.021046957, 0.5681305
674, 479602301, 0.379573, 0.36222044, 0.57720304, 0.6257513, -9.737159, 3.7426898, -0.29252243
675, 479618968, 0.36110264, 0.35946438, 0.5946897, 0.6218857, -5.0818887, -3.1415083, 0.6768675
676, 479635635, 0.3503605, 0.36396497, 0.60583776, 0.61460984, -0.74414325, -6.704713, -0.022322655
677, 479652302, 0.3474724, 0.3769748, 0.61045915, 0.6037384, -1.932605, -3.3946366, 0.35255337
678, 479668969, 0.3464775, 0.38930756, 0.6140788, 0.5927121, -2.98391, -0.39758, 0.95782375
679, 479685636, 0.34356618, 0.39691845, 0.61882454, 0.58436424, -1.8366147, 1.225172, 1.603529
680, 479702303, 0.33855888, 0.4006876, 0.62466395, 0.5784721, -0.60126954, -0.30614412, 1.2525234
681, 479718970, 0.33365133, 0.40338117, 0.6299777, 0.57366884, -0.7625209, -1.0142614, 0.8138685
682, 479735637, 0.33140272, 0.40776926, 0.63367563, 0.56776667, -0.7375809, -1.1300551, 0.3382988
683, 479752304, 0.33244374, 0.41492295, 0.6350481, 0.560394, -0.991927, -0.17660607, 0.384305
684, 479768971, 0.3343708, 0.4221664, 0.63566935, 0.55308545, -1.1877537, 1.2005376, 0.24958229
685, 479785638, 0.33411637, 0.4261173, 0.63756055, 0.5480093, -1.0165992, 1.738189, 0.3247671
686, 479802305, 0.33254215, 0.42795295, 0.6404041, 0.5442076, 0.3442551, 0.09183745, 0.1327076
687, 479818972, 0.33159706, 0.43090275, 0.64263403, 0.53981006, 0.44656995, -0.067563385, -0.37914848
688, 479835639, 0.33129662, 0.43496612, 0.6444994, 0.53448564, 0.67539704, 0.73260313, -0.1627922
689, 479852306, 0.33065858, 0.4393264, 0.6466939, 0.5286317, 0.87169963, 0.8778915, -0.7390709
690, 479868973, 0.3291602, 0.443583, 0.6494793, 0.5225628, 0.8585758, 1.3626232, -0.68778515
691, 479885640, 0.32646525, 0.4474469, 0.65295666, 0.5165916, 0.7986347, 1.4052262, -0.94287586
692, 479902307, 0.32272226, 0.4510639, 0.65740514, 0.5101153, 0.85265845, 1.1751071, -1.2238913
693, 479918974, 0.317453, 0.45396096, 0.663082, 0.5034608, 1.2328433, 0.6631324, -0.630579
694, 479935641, 0.3112116, 0.45657235, 0.66968185, 0.4962084, 1.1986815, -1.3441975, 0.58169365
695, 479952308, 0.30622873, 0.46065032, 0.6760727, 0.4867838, 2.7220173, -1.9811473, 1.8222609
696, 479968975, 0.3011356, 0.4654874, 0.68286026, 0.47576082, 3.126415, 0.029616585, 0.8558407
697, 479985642, 0.29372457, 0.4692348, 0.6914338, 0.4641891, 3.097178, 1.2651633, 1.0934172
698, 480002309, 0.28453463, 0.47243392, 0.7012839, 0.451724, 4.312409, 0.93272895, 1.7015266
699, 480018976, 0.27510154, 0.4770873, 0.7111929, 0.43694267, 4.238134, 0.4805607, 1.7187538
700, 480035643, 0.26559737, 0.48361552, 0.72082394, 0.41951674, 5.4170685, 0.9568668, 2.0392952
701, 480052310, 0.25566489, 0.49201363, 0.7301138, 0.3993736, 7.2112083, 1.2427665, 1.4888172
702, 480068977, 0.24722001, 0.50272876, 0.73821133, 0.37576252, 11.802312, 1.6480142, 1.4749622
703, 480085644, 0.24137697, 0.5165234, 0.74437124, 0.34764883, 12.554205, 2.8761456, 2.5829897
704, 480102311, 0.23908515, 0.53256416, 0.7480795, 0.3155918, 18.356358, 1.1856432, 4.006384
705, 480118978, 0.24868515, 0.5532082, 0.74577594, 0.27557555, 20.765774, 1.7287761, 0.28312302
706, 480135645, 0.26644874, 0.5733178, 0.73983264, 0.23014545, 11.246146, 6.5556703, -0.32951546
707, 480152312, 0.28066745, 0.58779734, 0.73533016, 0.18712851, 6.2174587, 15.706724, 1.0564585
708, 480168979, 0.2732389, 0.58940053, 0.7408291, 0.17066678, 6.2510004, 15.856465, 1.6799984
709, 480185646, 0.25165972, 0.58499193, 0.75076985, 0.17551085, 0.66144633, 13.322806, -1.0432415
710, 480202313, 0.22465618, 0.5800605, 0.7602547, 0.18729584, -4.5576663, 3.1672919, 5.2056274
711, 480218980, 0.21819358, 0.57655543, 0.7635168, 0.19241868, 6.9222593, -5.9712095, -2.762004
712, 480235647, 0.22281167, 0.57241905, 0.76325023, 0.20036891, 2.6190894, 1.2481736, -3.7001657
713, 480252314, 0.2292905, 0.56639296, 0.76136345, 0.21669817, -0.5646817, 3.853472, -3.8958654
714, 480268981, 0.23503667, 0.5570638, 0.75856626, 0.24294567, -1.4928862, 3.506888, -3.2490644
715, 480285648, 0.24047638, 0.5446679, 0.7543652, 0.27649388, -2.6459355, 1.1079932, -2.1503992
716, 480302315, 0.2513776, 0.53155434, 0.7458178, 0.31308582, 0.48856223, -1.9908228, -1.9573779
717, 480318982, 0.2711399, 0.519298, 0.73136705, 0.34917408, -0.43420008, -3.5048811, -1.1718912
718, 480335649, 0.29688007, 0.50907993, 0.71058315, 0.3844204, -2.174879, -4.305363, 0.20119381
719, 480352316, 0.32686386, 0.50003004, 0.6845945, 0.41769335, -3.0411496, -3.5262163, -1.0819225
720, 480368983, 0.3579546, 0.49157727, 0.654397, 0.44943562, -3.539333, -1.3591461, 0.25330734
721, 480385650, 0.38693726, 0.48153657, 0.6219836, 0.4811922, -4.3250766, -0.57473403, 2.2497034
722, 480402317, 0.41266346, 0.46908426, 0.58866966, 0.512976, -4.49928, -1.0698105, 3.047433
723, 480418984, 0.43474174, 0.45349842, 0.55581796, 0.5444382, -5.005006, -0.58953667, 3.1717882
724, 480435651, 0.4530567, 0.4341644, 0.52526194, 0.5747593, -5.3467603, -2.1486132, 2.8978243
725, 480452318, 0.46814764, 0.41395622, 0.49704167, 0.6020259, -6.7840314, -4.316588, 1.315896
726, 480468985, 0.48053887, 0.39482325, 0.47098234, 0.6256038, -6.2913795, -4.2139244, 0.8165989
727, 480485652, 0.4891786, 0.3749237, 0.4490883, 0.6468877, -7.4715023, -3.894434, -1.1543484
728, 480502319, 0.49421808, 0.3578995, 0.43266824, 0.6636733, -5.014997, -5.0437775, -4.581617
729, 480518986, 0.49487326, 0.34809566, 0.42419085, 0.6737948, -3.4194317, -3.2457795, -6.95423
730, 480535653, 0.49018314, 0.34337106, 0.4273176, 0.6776607, -4.628054, -1.1176857, -7.523794
731, 480552320, 0.4806761, 0.3407585, 0.44177687, 0.6765167, -7.127651, -0.58287513, -6.503126
732, 480568987, 0.46645254, 0.3383993, 0.4643819, 0.6725066, -9.151393, -1.6316956, -4.8266406
733, 480585654, 0.44866717, 0.33746278, 0.49014616, 0.666769, -9.802886, -3.7519283, -3.6533952
734, 480602321, 0.43396616, 0.34177643, 0.5099716, 0.6593928, -0.67847043, -3.0661328, 5.9845524
735, 480618988, 0.42446488, 0.3420655, 0.51961327, 0.6578984, -2.1584535, -2.8116472, 18.70207
736, 480635655, 0.40815952, 0.3369859, 0.5360505, 0.65765023, -2.7754328, -4.9440494, -7.577097
737, 480652322, 0.39683276, 0.34280562, 0.5509394, 0.64921606, -1.8127439, -8.2804165, -4.4435215
738, 480668989, 0.38815638, 0.3548264, 0.56193274, 0.6384919, -7.9948664, 2.1174247, 2.8925915
739, 480685656, 0.36929524, 0.35563096, 0.57963824, 0.63338363, -10.0234165, 5.0198846, -0.95127773
740, 480702323, 0.34895432, 0.34859294, 0.59895486, 0.6308524, -1.7836859, -6.4482284, 2.1076336
741, 480718990, 0.3394933, 0.35426322, 0.608809, 0.62337863, -0.23449393, -6.7322083, -0.7043371
742, 480735657, 0.33661053, 0.36755955, 0.613131, 0.61292017, -3.0673678, -2.195258, -0.32277298
743, 480752324, 0.33485368, 0.37843823, 0.61702913, 0.60327464, -3.4447415, 1.1978431, 1.981453
744, 480768991, 0.3297476, 0.3828135, 0.6227432, 0.59742683, -2.6268249, 2.7872338, 1.5056429
745, 480785658, 0.32167795, 0.38251373, 0.6300843, 0.59431297, -0.0927572, -1.1557146, 0.7883148
746, 480802325, 0.3153293, 0.3828813, 0.63598436, 0.59118587, -0.088925526, -2.0156434, 0.5938387
747, 480818992, 0.3120155, 0.38591126, 0.6400504, 0.58656776, -0.52892756, -1.5446603, 0.26925087
748, 480835659, 0.31172755, 0.39196733, 0.6419902, 0.58055466, -1.1713605, -0.7322803, 0.3261757
749, 480852326, 0.31187734, 0.39742014, 0.64380413, 0.574729, -1.1490349, 0.21470577, 0.17445564
750, 480868993, 0.31094557, 0.40080893, 0.6463245, 0.57003266, -0.04133559, 0.25043845, 0.08824158
751, 480885660, 0.31013122, 0.4042023, 0.6488043, 0.5652428, 0.4408203, -0.5638998, -0.10862923
752, 480902327, 0.3106484, 0.4095037, 0.65044886, 0.55922097, 0.5089153, -0.75957805, -0.27748203
753, 480918994, 0.31238425, 0.4163406, 0.6516212, 0.55179137, 1.2439389, 0.0060166335, -0.45377445
754, 480935661, 0.31331205, 0.4230485, 0.6533593, 0.5440538, 1.1063875, 1.5786159, -0.881299
755, 480952328, 0.31280765, 0.42925692, 0.65634036, 0.5358309, 2.6676707, 1.9330112, -1.0209532
756, 480968995, 0.31055605, 0.4352355, 0.6601657, 0.52755445, 1.9432628, 2.3694189, -0.90524673
757, 480985662, 0.3064765, 0.44054273, 0.66512567, 0.5192396, 0.9506185, 1.221416, -0.5529394
758, 481002329, 0.3023113, 0.44663957, 0.67056954, 0.50937706, 1.623488, -0.5980198, 0.019249916
759, 481018996, 0.2982655, 0.4535114, 0.67643625, 0.4978018, 2.2246277, -0.2395775, 0.6779709
760, 481035663, 0.29206097, 0.4590664, 0.6837323, 0.4862883, 1.6938815, 0.24331732, 0.87882423
761, 481052330, 0.28438768, 0.4635364, 0.6923354, 0.47427523, 2.6661623, -0.36350158, 1.6056347
762, 481068997, 0.2756672, 0.46809718, 0.7015129, 0.46128064, 2.5753212, 0.030224986, 1.404499
763, 481085664, 0.2663965, 0.4730591, 0.7109732, 0.4469594, 2.816865, 0.38385892, 1.918807
764, 481102331, 0.25661817, 0.47862405, 0.7205019, 0.4312201, 3.3851743, 0.5193326, 2.2321215
765, 481118998, 0.24717113, 0.48552108, 0.7296933, 0.41319606, 5.430137, 0.82616466, 2.3189926
766, 481135665, 0.23860255, 0.49399585, 0.73813814, 0.39267853, 8.63431, 1.35189, 1.676302
767, 481152332, 0.23230973, 0.5047575, 0.7453378, 0.36841705, 10.14994, 3.2925098, 2.1757765
768, 481168999, 0.22728409, 0.5174237, 0.75132763, 0.3407772, 14.591015, 1.990256, 3.2727413
769, 481185666, 0.23131137, 0.5349341, 0.75262696, 0.30643216, 22.440916, 1.3105396, 1.4080868
770, 481202333, 0.24654843, 0.5556194, 0.7486402, 0.2646624, 17.958242, 3.1011438, -0.9021015
771, 481219000, 0.26624492, 0.5737438, 0.7428181, 0.21945502, 8.052344, 9.54322, 0.6008291
772, 481235667, 0.27327856, 0.5830528, 0.74241924, 0.18490382, 5.4354634, 16.350843, 2.436716
773, 481252334, 0.25997612, 0.5807766, 0.75077283, 0.17736629, 6.145333, 12.690849, -0.11908245
774, 481269001, 0.23807362, 0.5761044, 0.76028514, 0.18275276, -1.4971063, 9.599438, 1.9135237
775, 481285668, 0.22111265, 0.57323354, 0.7662094, 0.1882632, 0.6619287, -2.633232, 2.959052
776, 481302335, 0.22422636, 0.5722744, 0.7658348, 0.18902141, 4.8644934, -4.4534283, -2.8128514
777, 481319002, 0.23302849, 0.5698277, 0.76350784, 0.19508351, 1.9145544, 2.2720408, -3.7787876
778, 481335669, 0.24151088, 0.5654704, 0.75976664, 0.2113707, 0.2318458, 3.698794, -4.6731052
779, 481352336, 0.24902235, 0.5584527, 0.75485605, 0.2373151, -1.6316319, 2.926896, -3.2933536
780, 481369003, 0.25730386, 0.5488324, 0.7484682, 0.2690361, -2.103944, 0.41542745, -2.1609821
781, 481385670, 0.27152413, 0.53854674, 0.7376651, 0.30347928, 0.7602802, -2.1624033, -2.0883474
782, 481402337, 0.29263255, 0.52850986, 0.72135055, 0.33868018, -0.5734833, -2.53019, -1.2121735
783, 481419004, 0.31785196, 0.5187206, 0.69998246, 0.37407342, -1.6848315, -3.487192, 0.31453323
784, 481435671, 0.34619775, 0.5088611, 0.6745804, 0.40762264, -2.74162, -3.381156, -0.85218143
785, 481452338, 0.37660092, 0.49982652, 0.6449179, 0.4386724, -3.5056562, -2.0641422, 0.68400764
786, 481469005, 0.40551743, 0.489512, 0.6128084, 0.4694749, -4.718807, -0.4353723, 3.3351536
787, 481485672, 0.43038052, 0.47659102, 0.580083, 0.5011432, -5.205606, -0.74918795, 3.3322763
788, 481502339, 0.4500364, 0.46020314, 0.548325, 0.5338796, -6.2854843, 0.19412223, 3.0432024
789, 481519006, 0.4640207, 0.4393185, 0.51933706, 0.5674332, -7.0369773, -1.2511348, 2.1761837
790, 481535673, 0.4755731, 0.4189969, 0.49272767, 0.59623694, -6.308158, -3.842084, -0.07646942
791, 481552340, 0.48624882, 0.40026617, 0.46887338, 0.6192853, -8.151204, -2.7936192, 0.68621826
792, 481569007, 0.49280804, 0.37794328, 0.45148274, 0.64067936, -9.353762, -2.1878843, -0.14342213
793, 481585674, 0.4956078, 0.3582185, 0.4397529, 0.65778214, -6.1020803, -5.2281585, -5.8052454
794, 481602341, 0.49451768, 0.34914356, 0.43377978, 0.6673781, -4.4121494, -4.1998215, -8.506216
795, 481619008, 0.4891036, 0.3471456, 0.43793085, 0.66969514, -5.2239985, -1.4884876, -7.4746103
796, 481635675, 0.4794525, 0.3483423, 0.45202434, 0.6666817, -7.3378854, -0.56849813, -7.160474
797, 481652342, 0.46432155, 0.34994188, 0.47325614, 0.66180235, -8.97172, -0.92014104, -5.1529117
798, 481669009, 0.44581938, 0.3518102, 0.49728826, 0.6558861, -8.330688, -2.8488505, -2.4807434
799, 481685676, 0.43735576, 0.35523993, 0.5095063, 0.6503347, 9.34804, -4.525896, 22.754768
800, 481702343, 0.41833213, 0.34370553, 0.5267262, 0.6553104, -6.896884, 0.0067576906, 2.044876
801, 481719010, 0.3997945, 0.3395683, 0.54687464, 0.65252835, -3.4691072, -8.54841, -9.404354
802, 481735677, 0.3897443, 0.34740162, 0.5603431, 0.64298874, -2.373249, -7.5234666, 0.9605837
803, 481752344, 0.37578684, 0.35672906, 0.5737624, 0.63429713, -12.700895, 4.2053, 0.32051754
804, 481769011, 0.35630104, 0.3542438, 0.591751, 0.6303958, -5.978117, -1.4119192, 2.1642666
805, 481785678, 0.34385642, 0.35642922, 0.60417753, 0.62425786, -1.3844287, -6.512651, -0.39671707
806, 481802345, 0.3410323, 0.36907074, 0.60924494, 0.6134426, -1.5605648, -4.0114436, 0.23441696
807, 481819012, 0.3401765, 0.38171554, 0.6123865, 0.6029621, -3.6651733, 0.51754606, 0.9547186
808, 481835679, 0.3362072, 0.38715872, 0.61764157, 0.5963213, -3.4346368, 2.8198414, 1.6213846
809, 481852346, 0.32800514, 0.386865, 0.6251539, 0.5932436, -0.640875, 0.67706376, 0.6545057
810, 481869013, 0.32064867, 0.38648242, 0.632004, 0.5902495, 1.2519892, -2.357341, 1.3142366
811, 481885680, 0.31676596, 0.3892476, 0.6367455, 0.58541286, -0.1171266, -2.1587458, -0.16217041
812, 481902347, 0.3161576, 0.39523897, 0.6394122, 0.5787832, -0.86364335, -1.6605729, 0.3200388
813, 481919014, 0.3175528, 0.4027593, 0.64060575, 0.57146907, -0.7778479, -0.7339662, 0.53886795
814, 481935681, 0.31803438, 0.40853405, 0.6422962, 0.5651702, -0.9076151, 0.09951478, 0.36345482
815, 481952348, 0.3182499, 0.41315883, 0.6443448, 0.5593244, -0.0072221505, -0.30731446, 0.33484077
816, 481969015, 0.31949368, 0.41879475, 0.64561427, 0.5529238, 0.037861977, -0.24585833, -0.0132751465
817, 481985682, 0.32125983, 0.4245999, 0.64639825, 0.54651976, -0.17916138, 1.0748657, 0.489913
818, 482002349, 0.32336754, 0.43076771, 0.64701194, 0.5396811, 0.4403449, 0.6222623, 0.03710556
819, 482019016, 0.32579413, 0.43803316, 0.64732236, 0.5319458, 0.7143887, 0.84582454, -0.10838699
820, 482035683, 0.32758272, 0.44528136, 0.64818424, 0.5237163, 0.9441092, 0.79869986, -1.0883207
821, 482052350, 0.3277745, 0.45142916, 0.65029186, 0.51565844, 1.200794, 1.3295385, -1.0340977
822, 482069017, 0.32546005, 0.4558292, 0.6541562, 0.5083135, 1.0713714, 1.0287348, -0.55541706
823, 482085684, 0.3215276, 0.45932305, 0.6594228, 0.5008109, 2.1297379, 0.5251774, -0.03593731
824, 482102351, 0.31688437, 0.46327433, 0.6653918, 0.49216107, 2.5856352, 0.6374281, -0.18840313
825, 482119018, 0.3113595, 0.46754766, 0.672137, 0.4823835, 2.5588617, 0.5598139, 0.48900604
826, 482135685, 0.305426, 0.47225147, 0.67969805, 0.4708624, 2.8998492, 0.16560075, 0.51471424
827, 482152352, 0.29763553, 0.47643092, 0.6886082, 0.45853347, 2.7857475, 0.8858699, 0.67873573
828, 482169019, 0.28828484, 0.47995418, 0.6987278, 0.44533452, 3.7556248, 0.5736194, 1.5859184
829, 482185686, 0.27799895, 0.48425066, 0.70905507, 0.43065795, 3.422496, 0.100096256, 1.4603271
830, 482202353, 0.26794392, 0.49029073, 0.718894, 0.41354552, 4.812295, 0.36397544, 1.8222523
831, 482219020, 0.257881, 0.4982545, 0.72814345, 0.39376926, 6.868724, 0.85191447, 1.1120596
832, 482235687, 0.24932744, 0.50823957, 0.7362787, 0.37071505, 11.46261, 1.883836, 0.7413082
833, 482252354, 0.24318816, 0.5207954, 0.7426436, 0.3436854, 12.276017, 3.0834408, 2.0933552
834, 482269021, 0.24120198, 0.53538084, 0.7468184, 0.31218386, 17.746164, -0.38488483, 3.1747265
835, 482285688, 0.25145674, 0.5543187, 0.74499243, 0.2729365, 20.109081, 0.5360171, 0.21131325
836, 482302355, 0.2706952, 0.57239014, 0.73938376, 0.22893879, 11.049035, 6.6431746, -0.94851303
837, 482319022, 0.28384563, 0.5856733, 0.73573536, 0.18740256, 4.822203, 17.042038, 0.22066307
838, 482335689, 0.27068678, 0.58583736, 0.7441422, 0.172578, 5.629414, 17.192038, 3.355672
839, 482352356, 0.24560343, 0.58077484, 0.75596255, 0.17580536, 2.0591733, 12.1250105, 0.38746548
840, 482369023, 0.2170038, 0.5761215, 0.76618934, 0.1842683, -2.4878352, 2.454244, 5.4883842
841, 482385690, 0.20843357, 0.5738404, 0.7697211, 0.18654743, 5.8004684, -5.761709, 0.049634933
842, 482402357, 0.21292506, 0.5722134, 0.7688961, 0.1898441, 2.9235897, -0.34978482, -3.003819
843, 482419024, 0.22031029, 0.569762, 0.7659551, 0.20038642, 0.72488445, 2.8814023, -3.7574673
844, 482435691, 0.22808075, 0.5655966, 0.7612474, 0.22043031, -0.4330327, 2.845211, -3.2642794
845, 482452358, 0.23510715, 0.5592196, 0.7551382, 0.24853909, -1.4108772, 1.1459905, -2.7930727
846, 482469025, 0.24592276, 0.5512255, 0.74631757, 0.28051785, 0.30449897, -1.0361549, -2.1914854
847, 482485692, 0.2644575, 0.5426035, 0.7331247, 0.31333584, 0.6608856, -3.2342794, -2.350862
848, 482502359, 0.2878749, 0.5340451, 0.7152699, 0.3468721, -1.1465783, -2.5155256, -0.9774618
849, 482519026, 0.31323397, 0.52383125, 0.694144, 0.38165036, -2.161844, -2.9354, 0.3417225
850, 482535693, 0.34148476, 0.51365536, 0.66901517, 0.4146957, -2.7240229, -3.3381932, 0.092906
851, 482552360, 0.37199372, 0.5045144, 0.6397119, 0.4448169, -3.3925686, -2.4885843, 0.9255724
852, 482569027, 0.40135983, 0.4951705, 0.60753256, 0.4739495, -4.728744, -1.2339951, 2.115366
853, 482585694, 0.42630103, 0.483284, 0.57483524, 0.5042578, -5.4079566, -0.36908862, 2.5530996
854, 482602361, 0.4461582, 0.4678408, 0.5431272, 0.53580624, -6.2075815, -0.8158414, 2.7137175
855, 482619028, 0.46123427, 0.44911087, 0.51352865, 0.5673256, -6.2969995, -1.5971043, 1.8910122
856, 482635695, 0.47431833, 0.4297189, 0.48677757, 0.5944904, -6.794986, -3.2688284, 0.21959591
857, 482652362, 0.48643842, 0.40915492, 0.46377054, 0.6171664, -8.129786, -2.8165412, 1.5464163
858, 482669029, 0.49477878, 0.38580045, 0.44678447, 0.63776416, -8.487658, -3.2841265, -0.5568342
859, 482685696, 0.49964333, 0.36809778, 0.4337738, 0.6532295, -5.5443454, -5.563781, -5.525366
860, 482702363, 0.4998123, 0.36115453, 0.42641386, 0.66176575, -4.477842, -2.0638356, -7.635684
861, 482719030, 0.49482566, 0.3594809, 0.43048003, 0.6637888, -5.419805, 0.47248235, -8.116244
862, 482735697, 0.48524177, 0.36181632, 0.44399425, 0.6606861, -7.6905704, -0.13281526, -7.3196273
863, 482752364, 0.4698468, 0.36528075, 0.46458247, 0.6557323, -9.397797, 0.3050968, -4.6965523
864, 482769031, 0.4499598, 0.36721116, 0.4896516, 0.6503391, -9.160829, -1.9076755, -3.016717
865, 482785698, 0.43901995, 0.36982343, 0.50528955, 0.64434636, 9.975182, -6.2227416, 20.000658
866, 482802365, 0.42012846, 0.35710675, 0.52280253, 0.65011704, -6.9359045, 1.2903717, 7.1330814
867, 482819032, 0.3990745, 0.34913528, 0.5454017, 0.6491447, -3.045003, -10.1071, -11.670517
868, 482835699, 0.39004192, 0.3558828, 0.55945754, 0.6389284, -0.6996662, -12.159568, 1.3035259
869, 482852366, 0.3805388, 0.36865312, 0.5694808, 0.628478, -12.055117, 3.5451105, -0.79243565
870, 482869033, 0.363155, 0.37005386, 0.5853237, 0.6233637, -8.29743, 1.3308126, 0.5548134
871, 482885700, 0.3515253, 0.37295935, 0.5972682, 0.6169358, -1.4705132, -7.651461, 2.3576317
872, 482902367, 0.35004514, 0.38698015, 0.60134286, 0.60506946, -0.81393427, -5.6476736, -0.47275066
873, 482919034, 0.3512291, 0.4025371, 0.6030599, 0.5923921, -3.3166778, -0.09496753, 0.7629461
874, 482935701, 0.3492874, 0.41073892, 0.6072553, 0.5835583, -3.3192773, 2.9613822, 2.2359343
875, 482952368, 0.34274778, 0.4122342, 0.6139726, 0.57933754, -1.2081705, 1.0639226, 1.3210592
876, 482969035, 0.33738345, 0.41352838, 0.6198134, 0.5753308, 0.66374654, -2.1530142, 1.3432331
877, 482985702, 0.336847, 0.41932505, 0.6225182, 0.5684884, -0.6501035, -1.2934833, -0.064471245
878, 483002369, 0.3388163, 0.42679483, 0.6233454, 0.5608011, -1.6330551, 0.9559689, 0.75467396
879, 483019036, 0.3398935, 0.43216765, 0.62441033, 0.5548178, -1.9120313, 1.8820274, 0.57544327
880, 483035703, 0.33946872, 0.43449256, 0.62663585, 0.55073786, -0.48966715, 0.96937054, 0.37061405
881, 483052370, 0.33924875, 0.4367267, 0.62875664, 0.5466743, 0.6439837, -0.64747024, -0.07447815
882, 483069037, 0.3402416, 0.44089118, 0.6299649, 0.5412969, 0.5364005, -0.114099786, -0.2749052
883, 483085704, 0.34065357, 0.44515553, 0.6314702, 0.5357654, 0.5896275, 1.6180747, 0.056214333
884, 483102371, 0.33969593, 0.44845286, 0.6341978, 0.5303749, 1.5512501, 1.2745425, -0.62274075
885, 483119038, 0.3374714, 0.45178765, 0.6377956, 0.5246193, 1.9696143, 1.6191083, -1.3170738
886, 483135705, 0.33347118, 0.45491707, 0.64271134, 0.51843727, 2.3253202, 1.7527667, -1.6309881
887, 483152372, 0.32773188, 0.45754743, 0.6490484, 0.51184535, 2.1943827, 1.0521672, -1.2699537
888, 483169039, 0.32057673, 0.45981595, 0.65648544, 0.50481105, 1.5390431, 0.57917994, -0.08785248
889, 483185706, 0.31328052, 0.46239915, 0.66441935, 0.49658522, 1.9540691, -1.0222244, 1.1214876
890, 483202373, 0.3068631, 0.466691, 0.67188704, 0.48642585, 2.1096087, -1.2790936, 1.137229
891, 483219040, 0.30057013, 0.4717463, 0.6796477, 0.47455227, 2.9321296, -0.7880101, 1.4869823
892, 483235707, 0.29332176, 0.47620305, 0.68835413, 0.46191886, 2.5019763, 0.108131096, 1.2104969
893, 483252374, 0.28477335, 0.4797101, 0.6982032, 0.4486672, 3.032021, 0.2872604, 1.7113066
894, 483269041, 0.27571535, 0.48369014, 0.70826036, 0.43405017, 3.4248505, 0.46675628, 1.7222462
895, 483285708, 0.26656464, 0.48863167, 0.7180522, 0.41784096, 4.5846567, 0.84100395, 1.9011879
896, 483302375, 0.2577772, 0.49535123, 0.7273505, 0.3989324, 6.6848845, 0.62487626, 1.2966137
897, 483319042, 0.25052336, 0.5046104, 0.7353515, 0.3766593, 10.020116, 0.87595487, 0.5048628
898, 483335709, 0.24713045, 0.5168851, 0.74122304, 0.34978896, 12.852904, 2.905689, 0.8885946
899, 483352376, 0.24704379, 0.53143585, 0.7451527, 0.31827706, 15.777733, 0.5074093, 2.2828884
900, 483369043, 0.25664502, 0.54985297, 0.7437335, 0.28046927, 20.810932, 2.9055576, -0.15632153
901, 483385710, 0.27130383, 0.56808406, 0.7392677, 0.23909324, 11.294027, 6.7745576, -1.5521412
902, 483402377, 0.2813606, 0.58240694, 0.7365775, 0.1977358, 5.3162975, 15.376715, -0.709115
903, 483419044, 0.27038535, 0.5839013, 0.74425185, 0.17901932, 6.6504574, 16.484888, 3.7201357
904, 483435711, 0.24878074, 0.579149, 0.75547814, 0.17875886, 3.7237115, 11.707211, -0.15841961
905, 483452378, 0.22191072, 0.57430583, 0.76585037, 0.18549678, -2.6165128, 5.022928, 5.2476406
906, 483469045, 0.21057113, 0.5713452, 0.77060443, 0.18815069, 5.932412, -4.153683, -0.5605221
907, 483485712, 0.20953919, 0.5682213, 0.7719772, 0.19307211, 3.60366, 0.17490448, -2.4979239
908, 483502379, 0.21429864, 0.56336874, 0.7714208, 0.20398366, 1.5116402, 1.7719412, -2.8571148
909, 483519046, 0.22286862, 0.55715424, 0.7686178, 0.22168252, 0.31383544, 1.9502741, -2.1324706
910, 483535713, 0.2318249, 0.54949695, 0.7638083, 0.24680911, -1.1018065, 0.9950497, -2.0775123
911, 483552380, 0.24387799, 0.54147965, 0.7556032, 0.27639592, 0.5985919, -1.0441488, -2.568036
912, 483569047, 0.26176187, 0.53369004, 0.74293727, 0.30774596, 0.17103994, -2.3300288, -1.9457641
913, 483585714, 0.2834676, 0.52561027, 0.7260377, 0.34096497, -1.2332604, -2.372349, 0.08106136
914, 483602381, 0.30721068, 0.5160686, 0.7060218, 0.37528098, -1.7794454, -2.6098576, 0.6194773
915, 483619048, 0.33306634, 0.50635856, 0.6823809, 0.40869495, -2.084151, -2.692337, 0.38929558
916, 483635715, 0.35995606, 0.49709353, 0.65529513, 0.44037002, -3.0367055, -2.007832, 0.83428764
917, 483652382, 0.38497686, 0.48689723, 0.62625515, 0.47173724, -4.672508, -1.4323623, 1.9282131
918, 483669049, 0.40636396, 0.4740208, 0.5967783, 0.50401974, -5.3485804, -1.4244944, 2.5942135
919, 483685716, 0.42377388, 0.45757517, 0.56813693, 0.53690666, -6.0074515, -1.9957298, 2.2069283
920, 483702383, 0.4386885, 0.43810666, 0.5407133, 0.5685523, -6.6233106, -2.7600682, 1.2627792
921, 483719050, 0.4518128, 0.41786283, 0.5151391, 0.5965697, -7.5921283, -4.445018, 0.16640186
922, 483735717, 0.46296266, 0.39786267, 0.49250552, 0.62033606, -7.768849, -4.144662, -0.38284206
923, 483752384, 0.47159642, 0.37840736, 0.473982, 0.6401198, -8.083062, -4.753867, -1.1694622
924, 483769051, 0.47722468, 0.36140567, 0.46041098, 0.6554937, -8.135154, -4.591455, -2.7877965
925, 483785718, 0.4789379, 0.3479118, 0.45413417, 0.66584235, -6.726638, -3.6455016, -6.054737
926, 483802385, 0.476602, 0.34054694, 0.456367, 0.6697875, -6.471892, -2.90546, -7.368639
927, 483819052, 0.47010735, 0.33903113, 0.46653163, 0.6681415, -7.710029, -1.9585327, -7.535399
928, 483835719, 0.45965302, 0.34136447, 0.48261356, 0.662783, -8.893818, -1.8599765, -6.0323586
929, 483852386, 0.44604325, 0.3459758, 0.50198996, 0.65525573, -9.239964, -2.3359475, -4.791173
930, 483869053, 0.4393864, 0.35487765, 0.5128423, 0.64653087, 7.748578, -2.0942395, 14.500748
931, 483885720, 0.42928618, 0.352071, 0.5214574, 0.64795786, -4.783275, 1.583858, 12.363817
932, 483902387, 0.41374007, 0.34921056, 0.53727007, 0.64669925, -3.0521495, -4.24755, -8.754632
933, 483919054, 0.40347555, 0.35574958, 0.55122036, 0.6378196, -0.5071113, -7.373766, -0.8289833
934, 483935721, 0.3924409, 0.36624378, 0.5625548, 0.628805, -9.985926, 3.1777444, 1.7198725
935, 483952388, 0.37525427, 0.36724627, 0.5787801, 0.6239678, -6.302748, 0.2668698, -1.2579308
936, 483969055, 0.36210424, 0.36905748, 0.5916563, 0.61856896, -2.6161768, -4.920913, 1.1247368
937, 483985722, 0.35645187, 0.37824425, 0.598678, 0.60947984, -1.76758, -3.9171977, -0.14147568
938, 484002389, 0.35423458, 0.3906866, 0.6026601, 0.59890777, -2.9230247, -1.8128268, 0.93094635
939, 484019056, 0.35251674, 0.40033638, 0.6070004, 0.5890849, -1.9188216, -0.49915516, 1.7504368
940, 484035723, 0.34889644, 0.4065593, 0.6121969, 0.58155274, -0.99472564, -0.011745717, 1.3755674
941, 484052390, 0.3443488, 0.4103909, 0.61766297, 0.57576346, 0.021412095, -1.2128018, 1.3476667
942, 484069057, 0.34077227, 0.41454136, 0.6222034, 0.57000035, -0.7399166, -1.0474242, 0.21308994
943, 484085724, 0.33991507, 0.420523, 0.62508905, 0.5629294, -0.8819984, -0.33127493, 0.3711033
944, 484102391, 0.34130034, 0.4281875, 0.626199, 0.5550246, -1.2364793, 0.16974133, 0.045041084
945, 484119058, 0.34311792, 0.43539503, 0.6268427, 0.54751927, -1.2077507, 1.2376862, 0.14731407
946, 484135725, 0.34368634, 0.44035816, 0.62838376, 0.54139256, -0.3180826, 0.872536, -0.16935349
947, 484152392, 0.34362814, 0.4442492, 0.6302894, 0.53600883, -0.34360188, 0.8067413, 0.1692791
948, 484169059, 0.34393984, 0.44843137, 0.63210815, 0.5301528, 0.0031756721, -0.085048355, 0.061450005
949, 484185726, 0.34450254, 0.45306027, 0.63373524, 0.52387196, 0.12997368, 0.17584893, 0.05948448
950, 484202393, 0.34459645, 0.4576816, 0.63586485, 0.5171697, 0.8029314, 0.6733291, -0.45441532
951, 484219060, 0.34363556, 0.46224818, 0.6387362, 0.51016176, 1.3423985, 0.74482864, -0.95056343
952, 484235727, 0.3420199, 0.46721292, 0.64235795, 0.5021142, 1.9632747, 0.85304505, -1.1450605
953, 484252394, 0.33899838, 0.4718567, 0.6471084, 0.49364957, 2.0699396, 1.7927886, -0.7273121
954, 484269061, 0.3333668, 0.47548437, 0.6534842, 0.4855383, 2.266522, 1.910848, -0.7111788
955, 484285728, 0.32597047, 0.47877896, 0.6611323, 0.47689193, 2.5085464, 0.49426046, -0.40604496
956, 484302395, 0.31773537, 0.48258862, 0.66942275, 0.4669405, 2.1315658, -0.24640404, 0.22437382
957, 484319062, 0.30871078, 0.48623073, 0.6783507, 0.45620763, 1.2982402, -0.75631434, 1.4690647
958, 484335729, 0.29965976, 0.48963696, 0.68776035, 0.4443572, 2.1145175, -1.2391137, 2.3649302
959, 484352396, 0.28983614, 0.4923938, 0.697759, 0.43206912, 2.09728, -0.52319556, 2.1868515
960, 484369063, 0.27925226, 0.494361, 0.70826596, 0.41951457, 3.028717, -0.14015938, 2.4806213
961, 484385730, 0.26904684, 0.49703127, 0.7184695, 0.4054417, 4.0560546, 0.20449983, 1.8540039
962, 484402397, 0.26019475, 0.5016363, 0.72786546, 0.38843215, 6.6634693, 0.7842761, 0.9589176
963, 484419064, 0.25405708, 0.5091589, 0.7357627, 0.36725116, 10.709163, 3.2488883, 0.7631483
964, 484435731, 0.24830386, 0.51920307, 0.7430699, 0.34150937, 12.901168, 2.7629747, 2.3661118
965, 484452398, 0.24706455, 0.53307754, 0.7472651, 0.31046763, 20.751558, 2.3638203, 2.940113
966, 484469065, 0.25591326, 0.55127895, 0.7459296, 0.2723908, 21.006235, 5.16242, -1.581357
967, 484485732, 0.26671475, 0.5672616, 0.74346787, 0.2331118, 9.500517, 9.603084, -1.4843311
968, 484502399, 0.26984224, 0.57616055, 0.7454788, 0.1987297, 5.383687, 15.428737, 2.458169
969, 484519066, 0.2559036, 0.5729609, 0.75546885, 0.18842411, 6.679163, 11.242356, 1.8254662
970, 484535733, 0.2335795, 0.5665815, 0.766702, 0.19131593, 0.64159954, 10.01351, 1.7669477
971, 484552400, 0.21120831, 0.56108016, 0.77549726, 0.19796933, -1.3278769, 1.0420442, 4.3153877
972, 484569067, 0.20965677, 0.558582, 0.7775606, 0.19858932, 6.346861, -5.191531, -3.190844
973, 484585734, 0.21783507, 0.5557964, 0.77612275, 0.20317361, 3.3622558, 2.136765, -3.0851817
974, 484602401, 0.22688167, 0.5511353, 0.77316314, 0.2167979, 0.4292526, 4.3926597, -3.8386621
975, 484619068, 0.23553121, 0.5438433, 0.7690458, 0.23944919, -0.6372213, 3.7472336, -2.9306064
976, 484635735, 0.24179645, 0.5333025, 0.7641722, 0.2705033, -1.2471857, 2.327385, -1.6906462
977, 484652402, 0.2525173, 0.5214219, 0.75549614, 0.3059208, 1.1567523, -1.129903, -1.7320051
978, 484669069, 0.27066237, 0.51068574, 0.7411769, 0.3414769, 0.2856585, -3.2021782, -1.6227951
979, 484685736, 0.2932991, 0.50115937, 0.72170186, 0.37678814, -1.281368, -4.371384, -0.63174534
980, 484702403, 0.31944692, 0.49238026, 0.6976647, 0.41083738, -1.5156033, -3.4945438, 0.048457146
981, 484719070, 0.34730265, 0.48404735, 0.66979766, 0.44323587, -2.5587723, -2.2090094, 0.6874685
982, 484735737, 0.37484494, 0.4747806, 0.63931394, 0.47472104, -3.583193, -0.9157033, 2.9681625
983, 484752404, 0.39944652, 0.46307105, 0.6078128, 0.50653636, -4.329208, -0.73752224, 3.3823366
984, 484769071, 0.42009977, 0.44752935, 0.57671237, 0.5391144, -5.0935173, -1.0869666, 3.1161518
985, 484785738, 0.43717933, 0.42857486, 0.54703087, 0.5709318, -5.8625174, -3.030014, 1.9211693
986, 484802405, 0.45257995, 0.41047734, 0.51826733, 0.5984033, -6.8200474, -5.1879897, -0.13705635
987, 484819072, 0.46631315, 0.39395604, 0.49120203, 0.6213528, -7.636134, -4.3361764, 0.21638107
988, 484835739, 0.4765727, 0.37630427, 0.46891424, 0.6414053, -8.552563, -3.420813, -0.10674667
989, 484852406, 0.48276904, 0.35845757, 0.45389783, 0.6575917, -7.9468102, -3.5258036, -4.1595917
990, 484869073, 0.4842281, 0.34577748, 0.44753665, 0.6675926, -5.39836, -3.7719045, -7.7512245
991, 484885740, 0.48044118, 0.34044448, 0.45114133, 0.6706364, -6.085361, -2.2265081, -8.604784
992, 484902407, 0.47164527, 0.33934528, 0.46500787, 0.6679604, -8.381196, -0.9684878, -8.143949
993, 484919074, 0.45787907, 0.3398828, 0.48644683, 0.66196954, -10.245548, -1.7321436, -6.3508425
994, 484935741, 0.443449, 0.3433528, 0.50742084, 0.6542123, -2.9507575, -0.33843562, 3.062911
995, 484952408, 0.43357357, 0.34292692, 0.51899725, 0.6519698, -1.5029176, -1.5126936, 22.379017
996, 484969075, 0.41582566, 0.33637854, 0.53688943, 0.6524538, -1.3915828, -3.7410798, -5.532327
997, 484985742, 0.40092093, 0.33983994, 0.55454266, 0.64518344, -2.6893222, -8.459254, -5.775774
998, 485002409, 0.3898885, 0.35107198, 0.5682617, 0.63389426, -7.8773065, -0.18064657, 2.0647469
999, 485019076, 0.37123743, 0.3535416, 0.5860452, 0.6274952, -10.377393, 3.0365186, -0.065647125
1000, 485035743, 0.35208026, 0.35004658, 0.60421824, 0.62324554, -3.9175262, -5.973182, 0.8310814
1001, 485052410, 0.34371313, 0.3579162, 0.61393833, 0.61387694, -0.019357117, -7.67907, -0.59797955
1002, 485069077, 0.341233, 0.3723086, 0.6180039, 0.6025157, -3.6061993, -1.5514803, 0.59007454
1003, 485085744, 0.3395823, 0.38304543, 0.62223655, 0.592275, -3.0159001, 0.0618752, 1.969408
1004, 485102411, 0.33455172, 0.3879514, 0.62808436, 0.5857362, -2.6328964, 2.6967454, 1.0377111
1005, 485119078, 0.32696903, 0.38845232, 0.6352868, 0.58190626, -0.58972484, -0.4734675, 1.7795486
1006, 485135745, 0.32195693, 0.38991064, 0.6409411, 0.57750833, -0.8209955, -2.1006064, 0.43417454
1007, 485152412, 0.32073742, 0.39487797, 0.6440623, 0.57130605, -0.85024375, -1.7694571, 0.452981
1008, 485169079, 0.3219918, 0.40168256, 0.6452881, 0.564432, -1.2948948, -0.28506306, 0.8574314
1009, 485185746, 0.32192722, 0.40564084, 0.64698505, 0.5596754, -2.107301, 1.428468, 0.64384365
1010, 485202413, 0.320326, 0.40673473, 0.64962196, 0.556738, -0.8790506, 0.41944206, 0.41482258
1011, 485219080, 0.3197425, 0.40878403, 0.6515828, 0.5532703, 0.11575177, -1.1180902, -0.4777832
1012, 485235747, 0.32052302, 0.41290256, 0.65257394, 0.5485725, 0.29404628, 0.4460067, -0.17811584
1013, 485252414, 0.32042742, 0.41630197, 0.6542109, 0.5440912, 0.80236626, 1.5440652, -0.33662415
1014, 485269081, 0.31877714, 0.41884646, 0.65699035, 0.53974104, 1.2022327, 1.371614, -1.2439823
1015, 485285748, 0.31642535, 0.4219224, 0.660626, 0.53426397, 1.9875389, 0.97222155, -1.2316704
1016, 485302415, 0.31385803, 0.42642945, 0.66446424, 0.5273956, 2.361065, 1.0839667, -1.2454681
1017, 485319082, 0.31075865, 0.43168584, 0.6691212, 0.51900035, 2.1094031, 0.47094494, -0.84262085
1018, 485335749, 0.30629054, 0.43650454, 0.67496634, 0.50997883, 1.9164524, 0.38478497, 0.246212
1019, 485352416, 0.3006111, 0.4407742, 0.6820996, 0.500099, 2.2769296, -0.32725492, 0.6490507
1020, 485369083, 0.29425132, 0.44509163, 0.68987346, 0.489277, 2.1103034, -0.68437654, 1.0315962
1021, 485385750, 0.28737792, 0.44908005, 0.698481, 0.47736064, 2.3491883, 0.05327811, 1.7707157
1022, 485402417, 0.27926692, 0.45271233, 0.7079288, 0.4646572, 1.8609935, 0.26986217, 1.4982185
1023, 485419084, 0.2707256, 0.4563236, 0.7176759, 0.4510272, 2.7495062, 0.89509475, 2.365057
1024, 485435751, 0.26188546, 0.46049917, 0.72742724, 0.43613538, 2.9471416, 0.9973036, 2.0922117
1025, 485452418, 0.25353265, 0.46604717, 0.736755, 0.41919097, 4.498476, 1.539863, 1.8068676
1026, 485469085, 0.24565107, 0.47364646, 0.745517, 0.39940807, 6.906993, 1.9599916, 0.687232
1027, 485485752, 0.23945484, 0.48390678, 0.75290835, 0.3763411, 11.381262, 3.0602818, -0.019703865
1028, 485502419, 0.23616634, 0.49754605, 0.75822234, 0.3489699, 13.208165, 3.8615475, 1.3046646
1029, 485519086, 0.23747724, 0.51427984, 0.76086015, 0.31657624, 18.323238, 1.1462487, 2.6493473
1030, 485535753, 0.2496657, 0.5345001, 0.7583585, 0.27726713, 19.250526, 1.0069634, 0.350914
1031, 485552420, 0.270612, 0.5544975, 0.7520772, 0.2317095, 10.019296, 7.339998, -1.6573896
1032, 485569087, 0.283379, 0.5689072, 0.7483005, 0.18998791, 3.6109378, 17.741928, 1.6777039
1033, 485585754, 0.270754, 0.5703838, 0.7555643, 0.17459942, 5.748911, 16.802937, 2.1514406
1034, 485602421, 0.24338937, 0.5658716, 0.76744187, 0.17774057, -0.6334337, 11.027555, 1.9006186
1035, 485619088, 0.21645308, 0.5617753, 0.7770064, 0.18391684, 0.6867708, -1.2669549, 5.4527206
1036, 485635755, 0.21310188, 0.5611985, 0.77885354, 0.18176629, 6.5627213, -6.741192, -2.2846694
1037, 485652422, 0.22040784, 0.56102335, 0.7770096, 0.18148585, 2.4658787, 1.5941998, -3.0314703
1038, 485669089, 0.22555354, 0.5584828, 0.77481943, 0.19205531, -0.081581, 4.9461145, -4.2942257
1039, 485685756, 0.22761053, 0.5532714, 0.7722574, 0.21379995, -1.6832124, 3.249245, -3.9309063
1040, 485702423, 0.2296376, 0.5457158, 0.7685222, 0.24257481, -1.4440653, 1.091672, -2.404704
1041, 485719090, 0.23786077, 0.537094, 0.7613703, 0.2743639, 0.5287427, -1.1515492, -1.9993443
1042, 485735757, 0.2537714, 0.5289799, 0.7492216, 0.3073358, 0.9478617, -2.8511734, -2.1788979
1043, 485752424, 0.27462932, 0.52150303, 0.73170763, 0.34238178, -0.007976283, -2.5203533, -1.5201311
1044, 485769091, 0.29763773, 0.51270163, 0.71051604, 0.379109, -1.7994286, -3.3552933, -0.78131104
1045, 485785758, 0.32429582, 0.5029326, 0.6851854, 0.41523477, -1.7597396, -4.0842237, 0.015034676
1046, 485802425, 0.35404474, 0.49288875, 0.6556747, 0.44923466, -2.788918, -3.776804, 0.83582497
1047, 485819092, 0.3843849, 0.48213467, 0.62284553, 0.48152438, -3.5821068, -2.772208, 3.1535397
1048, 485835759, 0.41235086, 0.4688574, 0.5885535, 0.51356816, -4.252338, -1.6747292, 4.0083857
1049, 485852426, 0.43592867, 0.45105326, 0.5544954, 0.54686373, -5.7036796, -1.5228546, 4.523225
1050, 485869093, 0.45468622, 0.42936182, 0.52182484, 0.5801857, -6.0831404, -3.2764523, 3.8582373
1051, 485885760, 0.47005734, 0.4079226, 0.49062383, 0.60986984, -6.7072964, -5.0654573, 1.552371
1052, 485902427, 0.48433068, 0.38941118, 0.46238205, 0.6324502, -7.680279, -4.8053136, -0.99328613
1053, 485919094, 0.49454945, 0.36907744, 0.4412252, 0.6515603, -9.114535, -2.111979, -1.1456814
1054, 485935761, 0.4993155, 0.35062268, 0.42915183, 0.6660214, -4.2914596, -4.7397523, -6.730363
1055, 485952428, 0.49858612, 0.34635887, 0.4255451, 0.67109346, -2.8884282, -2.5862882, -11.6248455
1056, 485969095, 0.49220848, 0.34807974, 0.43501365, 0.6688365, -6.7327924, 1.5209261, -8.465911
1057, 485985762, 0.48064142, 0.3501141, 0.4558334, 0.6622898, -9.585999, 0.32333732, -6.490506
1058, 486002429, 0.46281168, 0.35222736, 0.48240465, 0.6550074, -10.7304125, 0.110257715, -4.439589
1059, 486019096, 0.4471855, 0.35518187, 0.50360787, 0.64827293, 3.4912481, 0.012203807, 12.332455
1060, 486035763, 0.42873257, 0.34366, 0.52179575, 0.6525511, -5.4618874, -0.18788722, 16.925829
1061, 486052430, 0.40497696, 0.33334246, 0.545739, 0.6534931, -2.2700045, -8.965967, -11.432561
1062, 486069097, 0.3912545, 0.33947748, 0.56334376, 0.64368194, -1.3678352, -11.435014, -2.7250562
1063, 486085764, 0.38015592, 0.3526827, 0.5753124, 0.6325503, -11.756299, 1.6929127, 1.8876839
1064, 486102431, 0.36044985, 0.35414588, 0.59259, 0.62729716, -9.487758, 3.7220082, -1.1925669
1065, 486119098, 0.3435305, 0.35234243, 0.608893, 0.6221727, -1.9632154, -7.3116655, 2.0733929
1066, 486135765, 0.33835158, 0.36364996, 0.61614925, 0.6112651, -0.11386778, -6.9198337, 0.06116104
1067, 486152432, 0.33732972, 0.37877947, 0.6197392, 0.5988873, -2.3555632, -1.6740239, 0.83642673
1068, 486169099, 0.33523858, 0.38873237, 0.62419724, 0.5889719, -3.279459, 1.6068214, 2.1152916
1069, 486185766, 0.328498, 0.3920155, 0.6309211, 0.58340335, -2.6096404, 2.8398943, 1.3264761
1070, 486202433, 0.31945616, 0.39112595, 0.6387811, 0.58046085, 0.007149285, -0.80223113, 1.2807846
1071, 486219100, 0.31343976, 0.3922073, 0.6447093, 0.57644314, -0.35680243, -2.290128, 0.08225441
1072, 486235767, 0.31222832, 0.39782518, 0.6478024, 0.56974405, -0.7702967, -1.9834149, 0.18154049
1073, 486252434, 0.31300768, 0.40516493, 0.6492028, 0.5625045, -1.8068162, 0.20477296, 0.6169996
1074, 486269101, 0.31177738, 0.40879753, 0.65191096, 0.55740434, -1.5707254, 1.3888869, 0.68795776
1075, 486285768, 0.30920017, 0.40990308, 0.65547365, 0.5538382, -0.41173613, -0.17861524, 0.2498064
1076, 486302435, 0.30885231, 0.41332752, 0.657782, 0.5487271, 0.32646704, -1.5624, -0.18857479
1077, 486319102, 0.31033128, 0.41941744, 0.65870374, 0.54212636, 0.07530263, -0.19362469, 0.13964272
1078, 486335769, 0.3123062, 0.42565233, 0.6594848, 0.53513795, 0.97869325, 0.74559104, 0.31351852
1079, 486352436, 0.31326857, 0.4317821, 0.6607867, 0.5280115, 1.1029705, 1.5130755, -1.120347
1080, 486369103, 0.3124298, 0.43680453, 0.6634848, 0.5209464, 1.2194046, 1.7781345, -1.1052084
1081, 486385770, 0.3099702, 0.44106618, 0.667358, 0.5138293, 1.4452986, 0.9412525, -1.2614956
1082, 486402437, 0.3067809, 0.44565335, 0.67197275, 0.5057064, 1.6555542, 0.15357475, -0.32504368
1083, 486419104, 0.30329672, 0.4507247, 0.6770908, 0.49640146, 2.4274883, -0.083101, 0.7230444
1084, 486435771, 0.29930812, 0.45658565, 0.68269515, 0.4856741, 2.5481403, -0.16831374, 0.4343567
1085, 486452438, 0.29454646, 0.46247935, 0.68903506, 0.4739135, 3.078167, 0.07258985, 1.296937
1086, 486469105, 0.28831458, 0.4678109, 0.6966033, 0.46128017, 2.5146968, 0.28146538, 0.7397871
1087, 486485772, 0.2799063, 0.47201273, 0.705636, 0.4482659, 2.4220152, 0.5380335, 1.6122503
1088, 486502439, 0.27085078, 0.4764463, 0.7152119, 0.43372622, 3.9606218, 0.3419252, 1.9905233
1089, 486519106, 0.26140052, 0.48218587, 0.7247129, 0.41709197, 4.493698, 0.812259, 1.353054
1090, 486535773, 0.25214535, 0.48974845, 0.73369396, 0.39783186, 7.210511, 1.5144033, 1.3530836
1091, 486552440, 0.24391675, 0.49953678, 0.7416299, 0.3754471, 9.647755, 0.71500635, 0.6880026
1092, 486569107, 0.24016264, 0.5123223, 0.74723333, 0.34856555, 10.813557, 2.194563, 1.9513016
1093, 486585774, 0.24108161, 0.5270508, 0.7510106, 0.31636754, 14.771663, -1.4270766, 3.5855465
1094, 486602441, 0.25363758, 0.5457105, 0.7490404, 0.277154, 20.521935, 0.24815571, 1.2030993
1095, 486619108, 0.27515158, 0.5638577, 0.74262124, 0.23425987, 13.35128, 6.2275505, -1.0414162
1096, 486635775, 0.29060957, 0.5777048, 0.737643, 0.19414908, 5.6059885, 16.445768, -1.7042656
1097, 486652442, 0.27774316, 0.5791731, 0.74541533, 0.1782733, 3.9729633, 19.763124, 3.7309093
1098, 486669109, 0.2537898, 0.5730818, 0.7581214, 0.18007845, 6.1156096, 11.336513, 0.050466537
1099, 486685776, 0.2281167, 0.5678845, 0.76869434, 0.18597543, -1.5967096, 4.3693824, 4.8515224
1100, 486702443, 0.2168778, 0.56591666, 0.773131, 0.18702602, 3.10554, -3.848229, 2.0696058
1101, 486719110, 0.22009142, 0.564803, 0.7727286, 0.1882975, 4.1661, -0.63448423, -3.2376404
1102, 486735777, 0.22432144, 0.56235087, 0.7709967, 0.19751781, 1.0333393, 2.8651185, -3.3727632
1103, 486752444, 0.23127855, 0.55897504, 0.76699466, 0.2139727, 0.4517378, 1.915342, -3.8262153
1104, 486769111, 0.24033503, 0.5544098, 0.76094216, 0.23631272, -1.6981128, 1.330772, -2.544179
1105, 486785778, 0.25151947, 0.54851604, 0.75260276, 0.26356253, -0.93517536, 0.4591056, -2.3458982
1106, 486802445, 0.26769957, 0.5428641, 0.73996836, 0.2934115, 0.4880134, -1.248174, -2.8400354
1107, 486819112, 0.2894284, 0.53755057, 0.7220711, 0.3254104, 0.1073184, -1.5575602, -2.2605972
1108, 486835779, 0.31297752, 0.53078574, 0.70053804, 0.35995287, -1.4564764, -1.5572981, -0.71207047
1109, 486852446, 0.33812627, 0.5221426, 0.67613256, 0.3948296, -2.391405, -2.6607652, -0.44311428
1110, 486869113, 0.36592394, 0.51320326, 0.64795816, 0.42764524, -2.8515391, -3.2415884, -0.09107876
1111, 486885780, 0.3947454, 0.5030508, 0.6170503, 0.45866412, -3.6313467, -1.6742312, 1.8715391
1112, 486902447, 0.42169142, 0.49033794, 0.5848708, 0.48957032, -4.1761575, -1.129882, 2.5989532
1113, 486919114, 0.4446939, 0.47430906, 0.5530682, 0.5209625, -5.0621724, -0.10413759, 2.5967693
1114, 486935781, 0.4624113, 0.45371413, 0.52343196, 0.5534854, -6.2278104, -0.96007216, 3.5318775
1115, 486952448, 0.475767, 0.4305572, 0.4961103, 0.5849349, -6.5661855, -3.5065749, 2.1652155
1116, 486969115, 0.4874002, 0.40907604, 0.47083867, 0.6110784, -6.9158883, -4.3016953, 0.22352314
1117, 486985782, 0.49653158, 0.3874779, 0.45028394, 0.63290566, -8.634884, -2.6700675, 0.30850124
1118, 487002449, 0.50050694, 0.36594656, 0.43688044, 0.651705, -6.936025, -4.153563, -3.6759887
1119, 487019116, 0.49990016, 0.35453087, 0.42987812, 0.66303885, -3.9631064, -3.5801222, -9.008398
1120, 487035783, 0.49388143, 0.35044953, 0.4341023, 0.6669554, -5.5508165, -0.050168265, -7.953095
1121, 487052450, 0.48314068, 0.34921592, 0.44985858, 0.66502523, -8.213529, -0.27994907, -7.0234776
1122, 487069117, 0.46689257, 0.34922287, 0.4729785, 0.66057104, -10.053992, -0.62774473, -5.3466477
1123, 487085784, 0.44938612, 0.35046324, 0.496236, 0.65496993, -2.7708206, -0.06461983, 4.439871
1124, 487102451, 0.4337745, 0.34187266, 0.5139671, 0.65636003, -1.1817837, -3.0267642, 22.50341
1125, 487119118, 0.4099519, 0.32785025, 0.53733844, 0.66009784, -2.0348048, -5.6229367, -8.053692
1126, 487135785, 0.3918124, 0.32812595, 0.5586027, 0.65328985, -1.4944365, -12.706673, -5.7215314
1127, 487152452, 0.37972447, 0.33802015, 0.57296383, 0.6428624, -7.1392503, -2.8474598, 1.9816055
1128, 487169119, 0.36138588, 0.3424792, 0.58945715, 0.6361262, -11.897314, 6.0981717, -1.3869944
1129, 487185786, 0.33962002, 0.33749416, 0.6085401, 0.6328056, -5.0174193, -2.0010936, 0.7120943
1130, 487202453, 0.32823536, 0.34126848, 0.62035954, 0.6252675, 0.62905174, -7.996806, 0.70012474
1131, 487219120, 0.32508782, 0.35546958, 0.6253912, 0.6138837, -2.1646345, -4.919664, -0.694335
1132, 487235787, 0.32363755, 0.36792752, 0.6297351, 0.60276854, -2.573758, -0.9092214, 1.8394566
1133, 487252454, 0.31741643, 0.3732126, 0.6362132, 0.59598655, -2.6864989, 2.5069382, 1.3083696
1134, 487269121, 0.30726862, 0.37279117, 0.6445455, 0.59260595, -0.38125768, -0.09801836, 1.7789326
1135, 487285788, 0.29933292, 0.37329188, 0.6513503, 0.5889003, -0.5311099, -1.7707484, 0.537405
1136, 487302455, 0.29635918, 0.37781328, 0.65535194, 0.5830525, -0.8668612, -1.4097484, 0.4336624
1137, 487319122, 0.29636782, 0.3845884, 0.6572063, 0.5764944, -2.024951, -0.022216126, 0.9386568
1138, 487335789, 0.29547015, 0.38839835, 0.65940887, 0.5718672, -2.267396, 0.83728236, 0.94662094
1139, 487352456, 0.29319578, 0.38941696, 0.6624164, 0.5688615, -0.84039664, -0.5989591, 0.5337343
1140, 487369123, 0.2926457, 0.39174062, 0.66437095, 0.56525815, 0.32129183, -1.6982648, 0.4716692
1141, 487385790, 0.29383537, 0.39659768, 0.6650597, 0.56042373, 0.60253906, -0.25521424, 0.24151325
1142, 487402457, 0.29486987, 0.40156105, 0.665834, 0.5554038, 0.7788075, 0.98810285, -0.09628391
1143, 487419124, 0.2955027, 0.406802, 0.6670336, 0.54978585, 1.3576767, 1.0378249, -0.86327076
1144, 487435791, 0.29581964, 0.41304934, 0.6687707, 0.54280293, 1.5745666, 0.5622817, -1.6192455
1145, 487452458, 0.29573432, 0.41996786, 0.6711101, 0.53459096, 1.6218792, 1.2216837, -1.3569269
1146, 487469125, 0.29404786, 0.4260585, 0.67456377, 0.52629054, 1.4374938, 1.0324267, -0.42346
1147, 487485792, 0.2913772, 0.43176198, 0.67907894, 0.51724344, 1.7345811, -0.05559259, -0.17799091
1148, 487502459, 0.28820458, 0.4377859, 0.6842026, 0.50710595, 2.084573, -0.07355074, 0.22573471
1149, 487519126, 0.28401497, 0.44356552, 0.6902486, 0.49613523, 2.2611063, 0.2686295, 0.776701
1150, 487535793, 0.2786577, 0.44903734, 0.6972365, 0.48433948, 1.9884936, 0.11011768, 0.7893305
1151, 487552460, 0.27266473, 0.45454308, 0.70497465, 0.47123602, 2.6099424, 0.50171214, 1.1941528
1152, 487569127, 0.26534897, 0.45990562, 0.7134293, 0.45727816, 2.3910115, 1.0174832, 1.299099
1153, 487585794, 0.25712845, 0.46528473, 0.7222957, 0.44237095, 3.151771, 0.8687743, 1.7567987
1154, 487602461, 0.24849266, 0.47173917, 0.73102903, 0.42581475, 4.3178415, 0.7402843, 1.4672918
1155, 487619128, 0.24030405, 0.4802245, 0.73918283, 0.40651608, 6.4736633, 0.6874197, 1.1229439
1156, 487635795, 0.23427185, 0.49120396, 0.7460851, 0.3836672, 10.636692, 1.9124336, 0.7731104
1157, 487652462, 0.23017867, 0.5048358, 0.75162864, 0.35668066, 11.364437, 2.7027624, 1.74434
1158, 487669129, 0.22917147, 0.5208689, 0.75501686, 0.3257815, 17.044743, 0.15671209, 3.848999
1159, 487685796, 0.24062859, 0.54231656, 0.7523119, 0.28640082, 22.205338, -0.47666016, 0.32797718
1160, 487702463, 0.2606533, 0.5643457, 0.74545544, 0.24057859, 13.007834, 4.0282598, -0.88553524
1161, 487719130, 0.27834588, 0.5815483, 0.7393987, 0.19396552, 6.0080304, 15.01419, 0.56809616
1162, 487735797, 0.27201694, 0.58624935, 0.7435924, 0.17145514, 5.9548755, 18.723545, 4.302828
1163, 487752464, 0.25187284, 0.58321804, 0.7529957, 0.1715291, 6.087637, 11.388309, -2.0184288
1164, 487769131, 0.22476658, 0.57941085, 0.7624701, 0.18002908, -4.141497, 5.6013355, 6.2929535
1165, 487785798, 0.2123991, 0.5767564, 0.7671706, 0.18356514, 5.258108, -5.3557734, 1.3850813
1166, 487802465, 0.21476074, 0.5742225, 0.76756555, 0.18707618, 4.894795, -0.3578485, -3.0712466
1167, 487819132, 0.22042449, 0.569825, 0.7664187, 0.19830059, 1.0735935, 2.7723181, -3.5732474
1168, 487835799, 0.22529607, 0.5626914, 0.7645151, 0.21941964, -1.2176852, 3.4380858, -3.4789681
1169, 487852466, 0.22943433, 0.5522613, 0.76183003, 0.24897948, -2.1620026, 1.6456164, -3.1385736
1170, 487869133, 0.23659948, 0.5392042, 0.7569008, 0.28352946, -0.8785597, -0.3321634, -2.2255216
1171, 487885800, 0.25153682, 0.5259387, 0.74713796, 0.31923452, 0.0058602863, -3.401957, -2.0948267
1172, 487902467, 0.27555698, 0.51423967, 0.7308877, 0.35417074, -1.0781599, -4.2617846, -1.4794941
1173, 487919134, 0.30678824, 0.5048549, 0.70798576, 0.38699722, -2.3490367, -4.895973, -0.2948017
1174, 487935801, 0.34303382, 0.4983472, 0.6784563, 0.4167526, -3.0527208, -3.9818292, -1.377594
1175, 487952468, 0.37932655, 0.49302906, 0.6441508, 0.44509736, -3.9980233, -0.94886076, -0.1622181
1176, 487969135, 0.41130677, 0.48577523, 0.6078322, 0.47476038, -4.784646, 0.39879444, 2.1389875
1177, 487985802, 0.4366155, 0.47394183, 0.57238513, 0.50707906, -5.157074, 0.5941064, 3.3740263
1178, 488002469, 0.4549923, 0.45627445, 0.53948355, 0.54199743, -5.773406, 0.6867648, 3.8946934
1179, 488019136, 0.4667973, 0.43196616, 0.511755, 0.5775988, -6.3593564, -0.94028705, 2.5299788
1180, 488035803, 0.477004, 0.40675586, 0.48779896, 0.60751736, -6.834922, -3.6589553, 0.7058821
1181, 488052470, 0.48476088, 0.3798368, 0.46906963, 0.6330186, -7.7915974, -2.8773646, 1.6718988
1182, 488069137, 0.4896895, 0.35279495, 0.45512715, 0.6546811, -8.506685, -5.862305, -1.957602
1183, 488085804, 0.49358654, 0.34018704, 0.44186744, 0.6673877, -4.214788, -8.652483, -8.240902
1184, 488102471, 0.4936416, 0.3412892, 0.43436724, 0.67169404, -4.279983, -2.0190878, -8.282799
1185, 488119138, 0.48953784, 0.34534982, 0.43928835, 0.6694177, -6.844128, -0.5106582, -7.2400913
1186, 488135805, 0.48036966, 0.3508218, 0.4541973, 0.6632359, -8.276309, -1.2939082, -6.98352
1187, 488152472, 0.46502167, 0.35552332, 0.47587997, 0.6564331, -10.073091, -0.7952588, -4.3089976
1188, 488169139, 0.4485906, 0.35882595, 0.4981761, 0.64949155, -3.4665143, -0.49541646, 3.3091412
1189, 488185806, 0.4389845, 0.35575002, 0.509644, 0.64884937, 1.3806815, -2.1122284, 23.981987
1190, 488202473, 0.41903272, 0.34503472, 0.5292756, 0.6521029, -2.61456, -2.9784925, -7.576587
1191, 488219140, 0.4032227, 0.34626666, 0.54766375, 0.6462068, -4.0167828, -8.513009, -4.8066063
1192, 488235807, 0.39223757, 0.3549029, 0.5605005, 0.6372134, -6.9569035, -2.0218155, 2.44946
1193, 488252474, 0.37594116, 0.359263, 0.5762764, 0.63048553, -9.144793, 0.68116206, -1.1959085
1194, 488269141, 0.36093885, 0.36042672, 0.5912455, 0.6247019, -3.8649426, -4.9835353, 2.350398
1195, 488285808, 0.3534967, 0.36884636, 0.5997503, 0.61587346, -1.7080406, -5.9745097, -0.94300175
1196, 488302475, 0.3518364, 0.38294798, 0.6032795, 0.60466844, -2.6231546, -3.1513083, 0.60257244
1197, 488319142, 0.3520905, 0.39577565, 0.6057489, 0.59369206, -2.9046745, -0.049670167, 0.83451366
1198, 488335809, 0.34974444, 0.40320674, 0.60996044, 0.5857128, -1.9303566, 2.6240106, 1.2089233
1199, 488352476, 0.34401673, 0.40560675, 0.6161138, 0.5809883, -0.86326325, 1.3807168, 1.4246683
1200, 488369143, 0.33830115, 0.40694574, 0.62217796, 0.5769316, -0.21202774, -0.7673079, 0.6543131
1201, 488385810, 0.33531505, 0.41048905, 0.62634563, 0.57163084, -0.8270069, -1.3026544, 0.08564472
1202, 488402477, 0.33501506, 0.41621092, 0.6287929, 0.5649434, -1.1375808, -1.2144998, 0.17347431
1203, 488419144, 0.33611575, 0.4227801, 0.63020945, 0.5577879, -0.79941887, -0.31850025, 0.41873455
1204, 488435811, 0.3358985, 0.4276261, 0.6320745, 0.55208546, -0.6311731, 1.5489357, 0.3517275
1205, 488452478, 0.33352062, 0.429605, 0.63527757, 0.54830086, 0.28169617, 1.0253053, -0.10678959
1206, 488469145, 0.33138373, 0.43181884, 0.6384687, 0.5441351, 0.51483977, 0.038175788, -0.3250513
1207, 488485812, 0.33077955, 0.43586537, 0.64074075, 0.5385773, 0.50711447, 0.08112347, 0.06608963
1208, 488502479, 0.33071655, 0.44114012, 0.6427506, 0.531885, 0.84467727, 0.16716199, -0.5248203
1209, 488519146, 0.32957226, 0.44579563, 0.6457211, 0.52507216, 1.221882, 1.1068002, -0.79929733
1210, 488535813, 0.32701278, 0.4500972, 0.64968747, 0.5180633, 1.6388499, 0.7907939, -1.4722214
1211, 488552480, 0.3233116, 0.45417503, 0.6544515, 0.51078, 1.3026055, 0.9346551, -0.58097744
1212, 488569147, 0.3185514, 0.45815524, 0.6598574, 0.5032049, 1.4214574, 0.90404433, 0.0025815964
1213, 488585814, 0.31321496, 0.46206874, 0.6657757, 0.49511588, 1.8726171, 1.0471723, 0.19202805
1214, 488602481, 0.3071083, 0.46609855, 0.6724434, 0.48607066, 2.0224643, -0.088132724, 0.7336855
1215, 488619148, 0.30070525, 0.47067136, 0.67968947, 0.47547373, 2.8396587, -0.48771107, 0.8160238
1216, 488635815, 0.2928565, 0.47469303, 0.6883697, 0.46374226, 2.9898133, 0.49703068, 1.0801096
1217, 488652482, 0.28304237, 0.47782603, 0.6983483, 0.4515388, 3.3434827, 0.35123497, 2.1368113
1218, 488669149, 0.27289626, 0.48219177, 0.7084134, 0.43723816, 4.4866934, -0.5145505, 2.4545012
1219, 488685816, 0.2631839, 0.48876986, 0.71799743, 0.419912, 5.65487, 0.13422221, 1.8748608
1220, 488702483, 0.25276917, 0.49693885, 0.7275031, 0.3998835, 7.672526, 1.2029382, 1.4753361
1221, 488719150, 0.24255784, 0.5074227, 0.73622274, 0.37639347, 11.181054, 0.8533586, 1.2553892
1222, 488735817, 0.23644143, 0.52151984, 0.7423002, 0.3480101, 13.766631, 2.6532843, 2.3978014
1223, 488752484, 0.23505159, 0.53872174, 0.7457479, 0.3136841, 16.826305, 0.24962196, 3.0998602
1224, 488769151, 0.24479713, 0.5602069, 0.7433747, 0.27137607, 20.856773, 2.8214612, 1.3512716
1225, 488785818, 0.26411572, 0.5809277, 0.7364155, 0.22464654, 13.746266, 8.316578, 0.008631706
