sep=,
DeviceTag:,DEMO6_3,,,,,,,,,,,,,,,,,
FirmwareVersion:,1.9.1,,,,,,,,,,,,,,,,,
AppVersion:,2023.6.1,,,,,,,,,,,,,,,,,
SyncStatus:,Synced,,,,,,,,,,,,,,,,,
OutputRate:,60Hz,,,,,,,,,,,,,,,,,
FilterProfile:,General,,,,,,,,,,,,,,,,,
Measurement Mode:,Sensor fusion Mode - Complete (Quaternion),,,,,,,,,,,,,,,,,
StartTime:,2025-02-09 22:14:52.179 -0600,,,,,,,,,,,,,,,,,
 2025,,,,,,,,,,,,,,,,,,,

PacketCounter,SampleTimeFine,Quat_W,Quat_X,Quat_Y,Quat_Z,FreeAcc_X,FreeAcc_Y,FreeAcc_Z
1, 468368743, 0.25736767, -0.21043038, 0.72455263, -0.6037439, 0.03353577, -0.10673272, 0.048882484
2, 468385410, 0.25714517, -0.21011308, 0.72454864, -0.6039543, 0.15531938, -0.0909577, 0.026604652
3, 468402077, 0.2570959, -0.20995936, 0.7245365, -0.6040432, 0.08073668, -0.15537561, -0.008479118
4, 468418744, 0.2571173, -0.20990677, 0.72453815, -0.60405034, 0.141304, -0.1641264, 0.016451836
5, 468435411, 0.25705892, -0.2098369, 0.72460085, -0.6040243, 0.20506687, -0.0754689, 0.049889565
6, 468452078, 0.25699323, -0.20981047, 0.7246868, -0.6039583, 0.11359957, -0.051431, 0.06005001
7, 468468745, 0.25689062, -0.20975316, 0.72476876, -0.60392356, 0.035770454, -0.038591944, 0.058361053
8, 468485412, 0.2567912, -0.20964763, 0.72484493, -0.603911, 0.009526011, -0.017680405, 0.077970505
9, 468502079, 0.25682217, -0.20965256, 0.7248721, -0.60386366, 0.022654044, -0.0070684855, 0.072945595
10, 468518746, 0.25696152, -0.2097373, 0.72484666, -0.6038054, 0.10630991, 0.00795544, 0.030742645
11, 468535413, 0.25719255, -0.20995049, 0.72478944, -0.60370165, 0.05854173, -0.04209274, 0.042808533
12, 468552080, 0.25741452, -0.2101666, 0.72475153, -0.60357726, 0.13839744, -0.023856822, 0.045942307
13, 468568747, 0.25761965, -0.21039975, 0.7247057, -0.6034637, 0.14557466, -0.051702652, 0.042372704
14, 468585414, 0.2577299, -0.21058041, 0.7246978, -0.6033632, 0.050662674, -0.09131465, 0.017988205
15, 468602081, 0.25778335, -0.21071023, 0.72472054, -0.6032677, 0.12867786, -0.043389507, -8.983612E-4
16, 468618748, 0.25789174, -0.21091121, 0.72472745, -0.6031429, 0.09882156, -0.03126446, 0.04758072
17, 468635415, 0.2580622, -0.21117043, 0.72471595, -0.60299313, 0.05722524, -0.022700088, 0.0680418
18, 468652082, 0.25820023, -0.21139738, 0.7246979, -0.602876, 0.024663314, 0.025599638, 0.08020592
19, 468668749, 0.25839826, -0.2116649, 0.72464025, -0.60276663, 0.044966783, 0.050074056, 0.07473755
20, 468685416, 0.25855654, -0.21188164, 0.72457707, -0.60269856, 0.0035138472, 0.0067077354, 0.06661701
21, 468702083, 0.258726, -0.21204032, 0.72450143, -0.60266095, 0.022867946, -0.0075434227, 0.029880524
22, 468718750, 0.25890964, -0.21220565, 0.72442085, -0.6026207, 0.045734998, -0.058280893, 0.011180878
23, 468735417, 0.2591042, -0.2124018, 0.7243405, -0.6025645, 0.102979906, -0.07955192, 3.299713E-4
24, 468752084, 0.25925002, -0.21255516, 0.7242831, -0.60251665, 0.096690476, -0.12774213, 0.027262688
25, 468768751, 0.25926894, -0.21262975, 0.7242795, -0.6024866, 0.09667483, -0.10029672, 0.04336834
26, 468785418, 0.25926545, -0.21266824, 0.72428864, -0.6024633, 0.06260888, -0.089745454, 0.06872845
27, 468802085, 0.25923166, -0.21267988, 0.72430396, -0.60245544, 0.042308208, -0.0816982, 0.053473473
28, 468818752, 0.25925672, -0.21272458, 0.72431725, -0.602413, 0.040060002, -0.08089934, 0.04353714
29, 468835419, 0.25925285, -0.21274838, 0.72432804, -0.60239327, 0.02914419, -0.07564617, 0.026468277
30, 468852086, 0.25917032, -0.21267182, 0.72435766, -0.60242015, 0.023700196, -0.04624835, 0.03651142
31, 468868753, 0.2591111, -0.21260057, 0.72438806, -0.60243434, 0.07506001, -0.01424233, 0.0746479
32, 468885420, 0.25904253, -0.21250294, 0.7244116, -0.60247, 0.04647315, -0.02718781, 0.04106903
33, 468902087, 0.2590182, -0.21246243, 0.7244267, -0.60247666, 0.05692104, -0.06594928, 0.051057816
34, 468918754, 0.2589572, -0.21237859, 0.7244486, -0.6025062, 0.073234916, -0.060700726, 0.03903961
35, 468935421, 0.25890672, -0.2123335, 0.72447234, -0.60251534, 0.07692724, -0.078715086, 0.0025434494
36, 468952088, 0.25885198, -0.21230473, 0.7245105, -0.60250294, 0.11220808, -0.084713146, 0.0048570633
37, 468968755, 0.25882164, -0.2123392, 0.72455674, -0.60244805, 0.12533456, -0.06439973, 0.01809597
38, 468985422, 0.2587853, -0.21238363, 0.7246245, -0.60236645, 0.11445171, -0.07860825, 0.0037374496
39, 469002089, 0.25877267, -0.2124834, 0.7247017, -0.6022439, 0.065448396, -0.09019111, 0.00504303
40, 469018756, 0.25874013, -0.21254641, 0.7247916, -0.60212755, 0.022025079, -0.068273544, 0.059221268
41, 469035423, 0.25873035, -0.2126147, 0.7248605, -0.6020247, 0.016004309, -0.009583007, 0.10094452
42, 469052090, 0.25876394, -0.21272443, 0.7249023, -0.6019212, 0.0488929, 0.076320425, 0.078988075
43, 469068757, 0.25887418, -0.21285622, 0.72489756, -0.6018328, 0.01489021, 0.057360437, 0.10719395
44, 469085424, 0.25895247, -0.21290426, 0.72488046, -0.6018027, -0.041376717, -0.0050537675, 0.040198326
45, 469102091, 0.2590301, -0.21293688, 0.7248545, -0.6017889, 0.04086532, -0.02489476, 0.07895088
46, 469118758, 0.25906447, -0.21290264, 0.72483003, -0.60181576, 0.06307424, -0.09813666, 0.07639122
47, 469135425, 0.25912473, -0.21294646, 0.7248077, -0.6018013, 0.17748035, -0.063516796, 0.09477806
48, 469152092, 0.25922126, -0.2130664, 0.72479385, -0.6017338, 0.18850714, -0.06892111, 0.06980991
49, 469168759, 0.2591999, -0.21311295, 0.7248341, -0.6016781, 0.009676994, -0.18525533, 0.02743721
50, 469185426, 0.25918284, -0.21316892, 0.7248707, -0.60162145, 0.09783397, -0.08752588, -0.0025901794
51, 469202093, 0.25907382, -0.21314481, 0.7249484, -0.6015834, 0.045758244, -0.1539041, -0.012341499
52, 469218760, 0.25890675, -0.21307458, 0.7250767, -0.6015257, 0.017597621, -0.22132543, -0.0022087097
53, 469235427, 0.2584401, -0.21274523, 0.7252917, -0.60158366, 0.10664373, -0.19303855, 0.039639473
54, 469252094, 0.25791728, -0.21241313, 0.7255498, -0.6016143, 0.26464236, -0.094663605, 0.036930084
55, 469268761, 0.2574795, -0.2123048, 0.72582597, -0.6015068, 0.20872858, -0.20752032, 0.030964851
56, 469285428, 0.2568962, -0.21209988, 0.7261841, -0.6013963, 0.1438117, -0.13625269, 0.005522728
57, 469302095, 0.25641382, -0.21204585, 0.7265292, -0.6012045, 0.19488676, -0.029577134, -0.004770279
58, 469318762, 0.25606772, -0.21216063, 0.7268325, -0.600945, 0.11396926, 0.033109702, 0.055763245
59, 469335429, 0.2556144, -0.21211344, 0.7271493, -0.6007713, -0.06967379, -0.008169119, 0.108802795
60, 469352096, 0.2551231, -0.21198553, 0.72742534, -0.60069114, -0.08309116, 0.07013118, 0.0988636
61, 469368763, 0.2547241, -0.21182947, 0.72762364, -0.60067534, -0.058394883, 0.1453194, 0.08165264
62, 469385430, 0.25442344, -0.21167119, 0.7277349, -0.6007237, -0.16527006, 0.11835894, 0.08997631
63, 469402097, 0.2542225, -0.21149942, 0.72777647, -0.60081905, -0.07332097, 0.08266872, 0.10411835
64, 469418764, 0.25422007, -0.21144989, 0.72772384, -0.6009012, 0.030211575, 0.028000893, 0.17144775
65, 469435431, 0.25428286, -0.21141057, 0.72763526, -0.6009957, 0.059358783, 0.015118137, 0.106604576
66, 469452098, 0.25437495, -0.21138085, 0.7275322, -0.6010917, 0.047861055, -0.014098583, 0.08694744
67, 469468765, 0.25452954, -0.21141735, 0.7274008, -0.60117245, 0.13287722, 0.008010564, 0.062942505
68, 469485432, 0.25481027, -0.21159485, 0.72722703, -0.60120124, 0.086173855, -0.008376762, 0.034863472
69, 469502099, 0.2551542, -0.21181476, 0.7270327, -0.6012133, 0.05373039, -0.060745623, 0.0046110153
70, 469518766, 0.25554538, -0.21208586, 0.7268258, -0.6012018, 0.056155395, -0.04073736, 0.061318398
71, 469535433, 0.25592825, -0.21234964, 0.72661495, -0.6012006, 0.11065858, -0.032906108, 0.054840088
72, 469552100, 0.25636172, -0.21268575, 0.7263982, -0.60115886, 0.11432744, -0.02887469, 0.060334206
73, 469568767, 0.25668326, -0.21292552, 0.7262127, -0.601161, 0.003095878, -0.105163686, 0.056397438
74, 469585434, 0.2570108, -0.21316011, 0.72602236, -0.6011675, 0.09419909, -0.035508666, 0.014687538
75, 469602101, 0.25732154, -0.21340868, 0.72584116, -0.6011654, 0.046171073, -0.11167993, 0.06123829
76, 469618768, 0.25754017, -0.21354142, 0.7256892, -0.6012082, 0.047581773, -0.122045815, 0.006576538
77, 469635435, 0.2576573, -0.21362072, 0.72556895, -0.6012748, 0.07033081, -0.11629155, 0.03822899
78, 469652102, 0.25767967, -0.21360385, 0.72549707, -0.601358, 0.10270275, -0.061671138, 0.025434494
79, 469668769, 0.25772542, -0.21364023, 0.7254167, -0.6014226, 0.07697619, -0.09283222, 0.07577419
80, 469685436, 0.25772318, -0.213638, 0.72535294, -0.60150117, 0.07819969, -0.11781516, 0.019938469
81, 469702103, 0.2576364, -0.21355549, 0.7253414, -0.60158175, 0.109034315, -0.12109946, 0.0020856857
82, 469718770, 0.25750527, -0.2134921, 0.7253473, -0.60165334, 0.108915515, -0.094803326, -0.006790161
83, 469735437, 0.2573495, -0.21341053, 0.72537404, -0.60171646, 0.10062799, -0.08465438, 0.018024445
84, 469752104, 0.25720412, -0.2133589, 0.7254189, -0.6017428, 0.07511645, -0.06343181, -0.007341385
85, 469768771, 0.25702426, -0.21326768, 0.72547793, -0.6017809, 0.058676735, -0.08038568, 0.011663437
86, 469785438, 0.25687668, -0.21321504, 0.72552794, -0.6018022, 0.054313295, -0.054306727, 0.0457201
87, 469802105, 0.25678575, -0.21320036, 0.7255734, -0.6017913, 0.035629977, -0.018826943, 0.031467438
88, 469818772, 0.25672084, -0.2131596, 0.725603, -0.6017978, 0.060151808, 0.020622954, 0.042142868
89, 469835439, 0.2567023, -0.2131539, 0.7256042, -0.60180634, 0.060821563, 0.013549132, 0.033020973
90, 469852106, 0.2567657, -0.21321847, 0.7255746, -0.6017921, 0.04000044, -0.019212643, 0.053585052
91, 469868773, 0.25683573, -0.21326976, 0.72554064, -0.60178494, 0.033722293, -0.027258663, 0.0646534
92, 469885440, 0.2569267, -0.21331453, 0.7254815, -0.6018015, 0.04640207, -0.024064383, 0.048493385
93, 469902107, 0.25702524, -0.2133579, 0.7254131, -0.6018265, 0.037601583, -0.006518001, 0.047733307
94, 469918774, 0.25712988, -0.21340209, 0.72532725, -0.6018697, 0.036995754, -0.028275898, 0.055212975
95, 469935441, 0.25723654, -0.213445, 0.7252565, -0.601894, 0.12797692, -0.014499034, 0.05504799
96, 469952108, 0.25737083, -0.21353123, 0.7251698, -0.6019106, 0.07623245, -0.044143222, 0.05559635
97, 469968775, 0.25746128, -0.21356736, 0.7251027, -0.60193974, 0.049214758, -0.078187905, 0.02946186
98, 469985442, 0.25751036, -0.21358168, 0.7250549, -0.6019715, 0.046852004, -0.1326009, 0.020885468
99, 470002109, 0.25745866, -0.21350868, 0.72504634, -0.6020298, 0.08096388, -0.13143925, 0.05674267
100, 470018776, 0.25732547, -0.21339452, 0.7250901, -0.60207456, 0.1320852, -0.11784425, 0.025772095
101, 470035443, 0.25720817, -0.21331763, 0.7251429, -0.6020884, 0.10908472, -0.15116176, 0.06188202
102, 470052110, 0.25699627, -0.213166, 0.72524536, -0.60210925, 0.077073075, -0.15143561, 0.03909397
103, 470068777, 0.2567264, -0.21299371, 0.7253748, -0.60212946, 0.079589054, -0.103434056, 0.021492958
104, 470085444, 0.25644115, -0.21280253, 0.7255186, -0.60214543, 0.113016754, -0.10307719, 0.026307106
105, 470102111, 0.25609133, -0.21259135, 0.7256835, -0.60217035, 0.01329131, -0.110137545, 0.04130745
106, 470118778, 0.25569326, -0.21231101, 0.7258558, -0.6022306, 0.040318497, -0.061965223, 0.066308975
107, 470135445, 0.25535366, -0.21204379, 0.72600734, -0.60228604, 0.12142129, 0.013162762, 0.05601406
108, 470152112, 0.25513875, -0.21193594, 0.72611433, -0.6022861, 0.07280309, -0.014786667, 0.066119194
109, 470168779, 0.2549521, -0.21182698, 0.72620386, -0.6022955, 0.045978516, -0.011918857, 0.061615944
110, 470185446, 0.25478244, -0.21173672, 0.726274, -0.6023143, 0.05167195, 0.019672045, 0.07832813
111, 470202113, 0.25469154, -0.21170251, 0.7263096, -0.6023218, 0.065431185, 0.037537213, 0.06015396
112, 470218780, 0.2547621, -0.2117761, 0.7262825, -0.6022988, 0.050090037, 0.014866461, 0.059303284
113, 470235447, 0.25487727, -0.21186721, 0.72622997, -0.6022815, -0.012554388, -0.030925952, 0.059947968
114, 470252114, 0.2550078, -0.21196952, 0.72615796, -0.6022769, 0.029383237, -0.033955336, 0.039764404
115, 470268781, 0.2551453, -0.21205708, 0.7260924, -0.6022669, 0.09172279, -0.030445818, 0.04761696
116, 470285448, 0.25530618, -0.21216327, 0.72601575, -0.6022538, 0.07133159, -0.04376258, 0.062859535
117, 470302115, 0.25541413, -0.21221125, 0.72595507, -0.6022642, 0.06609759, -0.06845104, 0.05658722
118, 470318782, 0.25555268, -0.21229693, 0.72587925, -0.6022667, 0.09153962, -0.09415139, 0.06274891
119, 470335449, 0.25568256, -0.21238981, 0.7258313, -0.6022366, 0.07939482, -0.10096019, 0.0077371597
120, 470352116, 0.25580862, -0.21249937, 0.72578084, -0.60220516, 0.051426753, -0.11148754, 0.05500889
121, 470368783, 0.2558343, -0.21250376, 0.7257632, -0.602214, 0.024606988, -0.043590613, 0.045202255
122, 470385450, 0.25591415, -0.21254872, 0.7257153, -0.602222, 0.09337958, 0.0011216998, 0.069568634
123, 470402117, 0.25601488, -0.21258107, 0.72565913, -0.6022355, 0.04325691, -0.046765782, 0.061070442
124, 470418784, 0.25608164, -0.21258146, 0.72560316, -0.6022745, 0.03457276, -0.06485838, 0.04627037
125, 470435451, 0.25611916, -0.21255122, 0.7255507, -0.60233235, 0.06293577, -0.07292828, 0.04887867
126, 470452118, 0.25615937, -0.21254064, 0.7254976, -0.6023829, 0.1330452, -0.08000755, 0.025724411
127, 470468785, 0.25615463, -0.21251126, 0.72546804, -0.602431, 0.099935435, -0.14432503, 0.038823128
128, 470485452, 0.25616452, -0.21252681, 0.7254513, -0.6024415, 0.13325228, -0.0989403, 0.022331238
129, 470502119, 0.25611746, -0.21250859, 0.7254677, -0.6024483, 0.1058155, -0.06933905, 0.036273956
130, 470518786, 0.25610608, -0.21253386, 0.72548556, -0.60242254, 0.06821973, -0.041388564, 0.03809738
131, 470535453, 0.2561341, -0.2125907, 0.72548276, -0.602394, 0.062900566, -0.020602781, 0.052919388
132, 470552120, 0.25618112, -0.21263818, 0.7254796, -0.602361, 0.047222476, -0.054456837, 0.027068138
133, 470568787, 0.25620046, -0.21267162, 0.72547835, -0.60234237, -8.1693986E-4, -0.090767354, 0.027096748
134, 470585454, 0.25617635, -0.21263085, 0.7254967, -0.6023449, 0.037301406, -0.048872113, 0.009712219
135, 470602121, 0.25613865, -0.21256188, 0.7255181, -0.6023595, 0.03960158, -0.061288092, -0.010225296
136, 470618788, 0.2560813, -0.21246782, 0.725535, -0.6023968, 0.018483516, -0.024561113, 0.080262184
137, 470635455, 0.25605246, -0.21238841, 0.72554725, -0.60242206, 0.07358684, -0.012957102, 0.12464523
138, 470652122, 0.25603074, -0.21230356, 0.7255488, -0.6024593, 0.04999672, -0.06691226, 0.14085388
139, 470668789, 0.25608364, -0.2123075, 0.72553575, -0.60245126, 0.12035301, -0.022957547, 0.043702126
140, 470685456, 0.2562169, -0.21241017, 0.7255061, -0.60239404, 0.091319904, -0.08537474, -0.0083322525
141, 470702123, 0.2562387, -0.21240644, 0.72551084, -0.6023804, 0.008100668, -0.12546875, -0.07524395
142, 470718790, 0.2561839, -0.21233803, 0.72553605, -0.60239744, -0.0012451906, -0.14874175, -0.052731514
143, 470735457, 0.25607485, -0.21221109, 0.72559625, -0.602416, 0.08883623, -0.115845844, 0.0020542145
144, 470752124, 0.2559448, -0.21206807, 0.72567433, -0.6024277, 0.099859886, -0.08656305, 0.06302643
145, 470768791, 0.2558174, -0.21196513, 0.7257674, -0.6024061, 0.10169783, -0.07311877, 0.10698414
146, 470785458, 0.25570863, -0.2119075, 0.72586286, -0.60235757, 0.16353358, -0.031815782, 0.0853014
147, 470802125, 0.25557813, -0.21188486, 0.7259569, -0.60230744, 0.09299357, -0.063197255, 0.05782509
148, 470818792, 0.25543055, -0.21181269, 0.7260556, -0.60227656, 0.04931333, -0.09943848, 0.078167915
149, 470835459, 0.2551948, -0.21164423, 0.7261563, -0.60231435, -0.015158313, -0.023547174, 0.094166756
150, 470852126, 0.25512588, -0.21156606, 0.726184, -0.60233766, 0.09650574, 0.09277612, 0.08322716
151, 470868793, 0.25527647, -0.21166737, 0.7261228, -0.602312, 0.035075217, 0.09520836, 0.09944439
152, 470885460, 0.25540698, -0.21170309, 0.7260303, -0.6023556, -0.012688383, 0.03592247, 0.11824417
153, 470902127, 0.2555182, -0.2116861, 0.72592294, -0.60244393, 0.029536454, -0.037822332, 0.05410099
154, 470918794, 0.2555011, -0.21156716, 0.7258494, -0.6025815, 0.020057047, -0.04630149, 0.04525757
155, 470935461, 0.25559688, -0.21153605, 0.725734, -0.6026907, 0.13441275, -0.0365801, 0.049193382
156, 470952128, 0.25571305, -0.21154444, 0.72561526, -0.6027814, 0.029488176, -0.052504033, 0.025622368
157, 470968795, 0.25576925, -0.2115019, 0.72550356, -0.6029069, 0.08535881, -0.01752185, 0.05635166
158, 470985462, 0.25577167, -0.2114175, 0.7253842, -0.6030792, 0.07283036, 0.012558634, 0.05466175
159, 471002129, 0.25583616, -0.211377, 0.72522295, -0.60325986, 0.14279304, 0.035491735, 0.091983795
160, 471018796, 0.25603664, -0.21150401, 0.72502935, -0.6033628, 0.07896422, -0.05480697, 0.119441986
161, 471035463, 0.25614455, -0.21151215, 0.7248689, -0.60350704, 0.008831109, -0.06781271, 0.117863655
162, 471052130, 0.2555623, -0.2115861, 0.72530115, -0.6032086, -0.8361957, 0.56415397, -0.60065746
163, 471068797, 0.25500873, -0.21187739, 0.72594094, -0.60257053, -0.52527744, 0.6254809, 0.10428238
164, 471085464, 0.25449687, -0.21217418, 0.7266262, -0.6018563, -0.06110632, 0.39371628, -0.14630413
165, 471102131, 0.25345713, -0.21253663, 0.7276228, -0.6009624, -0.82983845, 0.42365775, -0.5192585
166, 471118798, 0.25283659, -0.21296865, 0.72855043, -0.59994614, -0.2839722, 0.17442116, 0.36603355
167, 471135465, 0.25125635, -0.21280396, 0.72978234, -0.5991707, -0.8468489, 0.38734928, -0.5056534
168, 471152132, 0.25000516, -0.2127655, 0.7308722, -0.59837866, -0.29116777, 0.26850626, 0.4992628
169, 471168799, 0.24922924, -0.2125057, 0.7317195, -0.597759, -0.14551756, 0.6309449, 1.0651531
170, 471185466, 0.249251, -0.21286252, 0.7321371, -0.5971114, 0.094330624, 0.4933981, 0.7111721
171, 471202133, 0.24929541, -0.21368179, 0.7325766, -0.59626055, -0.3221669, -0.3205104, 0.18738747
172, 471218800, 0.24743892, -0.21286081, 0.73344034, -0.5962657, -0.7568953, -0.295969, 0.17588806
173, 471235467, 0.24558508, -0.21224235, 0.7342232, -0.59628934, 0.3369052, 0.9471793, 0.29910755
174, 471252134, 0.24522114, -0.21312432, 0.7343338, -0.5959883, 0.23414747, 1.3999732, 0.7299833
175, 471268801, 0.24552314, -0.21417305, 0.73385066, -0.596083, -0.90606165, 1.4366801, 0.6280041
176, 471285468, 0.24587366, -0.21452431, 0.7330511, -0.59679556, -1.5735302, 1.1781867, -0.11290455
177, 471302135, 0.24584581, -0.21394011, 0.73214906, -0.5981225, -1.6700535, 0.84713244, -0.40220833
178, 471318802, 0.24600562, -0.21329565, 0.73124856, -0.599387, -0.3901081, 0.8744228, -0.51402473
179, 471335469, 0.24675755, -0.21329126, 0.7304883, -0.6000064, 0.29897204, 0.19876283, -0.68592644
180, 471352136, 0.24697652, -0.2131564, 0.7301151, -0.6004182, 0.20966421, -0.51221985, -0.61160374
181, 471368803, 0.2470281, -0.21321, 0.73005337, -0.60045296, 0.37529525, -0.56111455, -0.30186558
182, 471385470, 0.24682274, -0.2134151, 0.73032117, -0.60013896, 0.1501084, -0.59678495, -0.31138897
183, 471402137, 0.2461861, -0.21356654, 0.7308898, -0.5996542, 0.1418554, -0.6981301, -0.041823387
184, 471418804, 0.24493657, -0.21349876, 0.73185086, -0.5990175, -0.03428834, -0.7337841, -0.020002365
185, 471435471, 0.24326804, -0.2132783, 0.73313147, -0.5982097, 0.02581027, -0.601533, -0.06456566
186, 471452138, 0.24144867, -0.21310988, 0.73461705, -0.5971834, -0.027015116, -0.12213293, 0.19642067
187, 471468805, 0.23983386, -0.21316238, 0.7360494, -0.5960506, 0.17980109, 0.63865644, 0.6955166
188, 471485472, 0.239317, -0.21412712, 0.73709404, -0.59461987, 0.30387515, 1.3575182, 0.93921757
189, 471502139, 0.2400372, -0.21592465, 0.7378509, -0.59273773, -0.05852653, 1.1255076, 0.70491505
190, 471518806, 0.24091542, -0.21756813, 0.7385286, -0.59093386, -0.3602109, 0.19454493, 0.6634245
191, 471535473, 0.24097839, -0.21840392, 0.7394632, -0.5894291, -0.61595535, -0.12215421, 0.11423302
192, 471552140, 0.240971, -0.21926151, 0.7405746, -0.5877159, -0.0063283225, -0.08441719, -0.067474365
193, 471568807, 0.2409524, -0.22049665, 0.7418711, -0.58562267, -0.047048584, -0.3597922, -0.120126724
194, 471585474, 0.24060288, -0.22179644, 0.74352014, -0.58317894, 0.24606352, -0.54524755, -0.28088474
195, 471602141, 0.23997664, -0.22333352, 0.7455673, -0.58022934, 0.45405373, -0.58366835, -0.39998817
196, 471618808, 0.238805, -0.22499782, 0.7480577, -0.5768545, 0.35134682, -0.7538242, -0.45085907
197, 471635475, 0.23694265, -0.2266798, 0.75106925, -0.5730382, 0.28582725, -0.9113995, -0.5083332
198, 471652142, 0.23446697, -0.22849232, 0.75459623, -0.5686865, 0.5786832, -1.1452012, -0.37663937
199, 471668809, 0.23126504, -0.23062119, 0.75874645, -0.56359345, 1.1187533, -1.6082606, -0.64334106
200, 471685476, 0.22692777, -0.23326083, 0.76371044, -0.5575328, 2.1347678, -2.2243006, -0.89334774
201, 471702143, 0.22145738, -0.23693842, 0.7695973, -0.5500366, 3.272125, -2.734639, -0.653594
202, 471718810, 0.21450746, -0.24228823, 0.7765101, -0.5406649, 4.148489, -2.9549596, 0.07819462
203, 471735477, 0.20662093, -0.24919179, 0.7841716, -0.5294239, 5.037696, -2.7640715, 1.1847391
204, 471752144, 0.1990202, -0.2580728, 0.79196715, -0.5163146, 6.0428004, -2.3373406, 2.8476162
205, 471768811, 0.19411185, -0.27043766, 0.79906505, -0.5006819, 6.655498, -3.0884345, 3.6392555
206, 471785478, 0.191526, -0.28501198, 0.8054473, -0.48305696, 3.4076388, -5.222595, 3.4980602
207, 471802145, 0.18607764, -0.29765856, 0.81238055, -0.46563473, -2.1825998, -5.757745, 2.889679
208, 471818812, 0.1747517, -0.3046849, 0.81948507, -0.4528537, -3.0344222, -4.956523, 2.4375734
209, 471835479, 0.16344622, -0.30783838, 0.8247706, -0.44528383, 2.1344593, -0.96785516, 1.0574245
210, 471852146, 0.16436449, -0.31394777, 0.8262189, -0.43793464, 5.550238, 0.60981363, -1.5564423
211, 471868813, 0.17747846, -0.32171416, 0.8229255, -0.4333575, 3.3240058, -2.662454, -2.0508614
212, 471885480, 0.19384979, -0.3256012, 0.816281, -0.43599895, -0.496867, -4.8678083, -2.1082668
213, 471902147, 0.20542179, -0.3219201, 0.8075667, -0.44945428, -2.63411, -5.270767, -2.2071142
214, 471918814, 0.21225007, -0.31105888, 0.7970064, -0.4722037, -1.683826, -2.9056597, -1.5098715
215, 471935481, 0.22031097, -0.2966362, 0.7836512, -0.49936375, -0.49918225, -0.6503798, -0.37944508
216, 471952148, 0.23188674, -0.28143, 0.76705706, -0.52787554, -0.9214113, 0.6190552, 0.4923544
217, 471968815, 0.24562827, -0.2660019, 0.74760294, -0.55677915, -1.898318, 1.028296, 1.1554337
218, 471985482, 0.25945902, -0.24973947, 0.7262199, -0.5855931, -2.2260876, 1.4303075, 1.1433983
219, 472002149, 0.27342483, -0.23372014, 0.7038202, -0.61258, -1.5172477, 2.3236458, 0.259614
220, 472018816, 0.28836113, -0.22059362, 0.68094873, -0.63600194, -1.0215572, 3.1454768, -0.86675453
221, 472035483, 0.3038332, -0.21156517, 0.6583572, -0.65535843, -0.94335175, 3.7514038, -1.6109362
222, 472052150, 0.31904328, -0.20520149, 0.6361732, -0.6718564, -1.9053427, 3.4863305, -1.3619566
223, 472068817, 0.33170828, -0.19873711, 0.6156042, -0.6866642, -2.495919, 2.9911423, -1.3989773
224, 472085484, 0.34003693, -0.1910969, 0.5981356, -0.70006704, -2.9087768, 2.4939444, -2.0306892
225, 472102151, 0.34374472, -0.18089259, 0.58483297, -0.71210337, -2.8640225, 2.5519297, -2.4312816
226, 472118818, 0.34426883, -0.16956998, 0.57597804, -0.7217878, -1.7641467, 2.904523, -2.1315079
227, 472135485, 0.34252045, -0.15997124, 0.5715388, -0.72831, -1.3401387, 2.6859033, -3.0270953
228, 472152152, 0.33873045, -0.15363255, 0.5716805, -0.7313299, -1.4056746, 2.5631795, -2.874351
229, 472168819, 0.33301896, -0.15017968, 0.5760816, -0.73121667, -1.7729243, 3.0732434, -1.7498026
230, 472185486, 0.326018, -0.15063755, 0.583941, -0.7280363, -1.5162597, 3.8566954, -2.0211773
231, 472202153, 0.31845412, -0.15482232, 0.59403485, -0.7223177, -1.9930545, 4.354478, -1.9294796
232, 472218820, 0.3107922, -0.15999341, 0.6041037, -0.716151, -0.5490428, 1.6291662, 3.440528
233, 472235487, 0.29876775, -0.16062179, 0.6157484, -0.7111931, -1.9727862, 2.7991138, 8.34325
234, 472252154, 0.28323323, -0.15817663, 0.62884706, -0.70662135, -1.2822603, 2.683036, 1.8321762
235, 472268821, 0.26736245, -0.15607132, 0.6418419, -0.7015705, -2.3246903, 5.215309, -2.1416793
236, 472285488, 0.253995, -0.1555284, 0.6531515, -0.6961996, -3.6401224, 4.628939, -0.9420862
237, 472302155, 0.23994859, -0.1537613, 0.6628214, -0.6924256, -4.836976, 2.9329562, -1.8784828
238, 472318822, 0.22790112, -0.15340309, 0.67063844, -0.68903977, -2.824, 3.741368, 0.9961195
239, 472335489, 0.22208151, -0.15732384, 0.67615974, -0.6846461, -0.15411788, 3.2465122, 2.0522728
240, 472352156, 0.22170697, -0.16624045, 0.6801919, -0.67864007, 1.3464031, 1.7267737, 1.211585
241, 472368823, 0.22434866, -0.17762093, 0.68356574, -0.67146075, 0.42838103, 1.1702086, 1.1727514
242, 472385490, 0.22602114, -0.18588287, 0.68713975, -0.6649845, -0.7376531, -0.41260368, 1.0940523
243, 472402157, 0.22355184, -0.18896425, 0.6914385, -0.6604796, -1.2083541, -1.1404045, -0.5922384
244, 472418824, 0.21839336, -0.18869907, 0.69626695, -0.6572006, -0.7046036, -0.7213874, 0.0820303
245, 472435491, 0.21432498, -0.18919371, 0.70056516, -0.65382123, 0.55432713, -0.047477785, 0.27539158
246, 472452158, 0.21467847, -0.19394712, 0.7036571, -0.6489741, 1.5404696, 0.1556438, 0.022493362
247, 472468825, 0.21864703, -0.20208474, 0.7057241, -0.6428933, 0.8287907, -0.059427626, -0.23804665
248, 472485492, 0.22330064, -0.21015584, 0.70737237, -0.6368666, -0.5502031, -0.57154953, 0.037899017
249, 472502159, 0.22519772, -0.2148718, 0.7093614, -0.63239676, -1.5476824, -0.8454998, 0.16168499
250, 472518826, 0.22382598, -0.21617198, 0.71193635, -0.6295408, -0.8748158, -0.3059202, 0.29221058
251, 472535493, 0.22193748, -0.21710956, 0.71469307, -0.626757, 0.7760583, 0.3400203, 0.06924629
252, 472552160, 0.22199777, -0.22027099, 0.71712524, -0.6228422, 1.5182663, 0.56093603, -0.08378887
253, 472568827, 0.22373632, -0.22538619, 0.7193465, -0.61780816, 0.74383485, -0.0950709, -0.25789452
254, 472585494, 0.22488056, -0.22997177, 0.72171223, -0.61292434, -0.49407852, -0.83705735, 0.35375214
255, 472602161, 0.2235102, -0.23241891, 0.72476417, -0.6088881, -0.37471825, -0.89314884, 0.034068108
256, 472618828, 0.22130714, -0.2341713, 0.72830904, -0.60477775, 1.3721002, -0.71762323, -0.1630354
257, 472635495, 0.22015843, -0.23765832, 0.73194635, -0.5994219, 2.2274425, -0.78761697, -0.61965656
258, 472652162, 0.21901265, -0.24180664, 0.73592204, -0.59328336, 1.1872917, -1.6808734, -0.5903883
259, 472668829, 0.2160939, -0.24484092, 0.74057883, -0.5872842, 0.548349, -2.0614557, -0.45731354
260, 472685496, 0.21196988, -0.24736771, 0.7459357, -0.58091396, 1.3286468, -1.6956786, -0.6970701
261, 472702163, 0.2080082, -0.25123423, 0.75164235, -0.57328117, 2.2956102, -0.9976893, -0.52094364
262, 472718830, 0.20445676, -0.25666982, 0.75763285, -0.56419307, 2.1077406, -0.7615725, 0.24345207
263, 472735497, 0.19952632, -0.2620484, 0.76426333, -0.5544589, 1.5239053, -1.217578, 0.43224525
264, 472752164, 0.1925584, -0.26622826, 0.7717764, -0.5444341, 1.4522303, -1.1603112, 0.54053974
265, 472768831, 0.18435548, -0.26974502, 0.7799249, -0.5338267, 1.4497668, -0.86647195, 1.1557331
266, 472785498, 0.17525361, -0.27313548, 0.78842306, -0.522566, 1.6325239, -0.714151, 1.7275105
267, 472802165, 0.16649193, -0.27725908, 0.7969971, -0.51010484, 2.0669687, -0.9658312, 1.7634621
268, 472818832, 0.15773864, -0.28202257, 0.80570275, -0.49641538, 2.5153315, -1.4617345, 1.4258747
269, 472835499, 0.1498304, -0.28789568, 0.8143297, -0.48118335, 3.8208928, -3.1114612, 1.189743
270, 472852166, 0.142266, -0.29500967, 0.82302934, -0.46406415, 4.126063, -4.6962113, 1.7863836
271, 472868833, 0.13343605, -0.30315745, 0.8317872, -0.44544768, 6.9183035, -4.806232, 1.8428478
272, 472885500, 0.1285176, -0.31504324, 0.8397567, -0.42313454, 12.125907, -5.91686, 1.1336956
273, 472902167, 0.13108335, -0.3317267, 0.8465408, -0.3951536, 14.752213, -7.795553, -0.15309715
274, 472918834, 0.13964784, -0.35040045, 0.8521685, -0.36267057, 11.057687, -8.417391, -0.46964836
275, 472935501, 0.15042642, -0.36795256, 0.85671186, -0.32868043, 4.24785, -10.825583, 1.0530758
276, 472952168, 0.15369795, -0.37903795, 0.8619601, -0.29955867, -0.1962484, -9.922357, 3.739274
277, 472968835, 0.15280446, -0.3839528, 0.86644024, -0.28020623, 1.2833036, -8.699222, 1.3496122
278, 472985502, 0.14760357, -0.38560778, 0.8697835, -0.27018496, -2.0603952, -5.5637064, 1.4186544
279, 473002169, 0.13750489, -0.3846051, 0.87349784, -0.2649081, -4.1734734, -2.0386274, 3.1276617
280, 473018836, 0.13528803, -0.38394296, 0.87501794, -0.26197696, 3.4060416, -1.0387312, -1.7723131
281, 473035503, 0.14144255, -0.382636, 0.8740382, -0.263902, 3.9797997, -1.1679182, -1.9312525
282, 473052170, 0.15350781, -0.38098922, 0.87081987, -0.27010807, 0.07466897, -1.35108, -2.37007
283, 473068837, 0.16614677, -0.37663433, 0.86607283, -0.2836595, -1.4032404, -2.8989751, -2.4465466
284, 473085504, 0.17406274, -0.36763036, 0.859984, -0.30818948, -3.481859, -3.5429497, -1.8345342
285, 473102171, 0.17849785, -0.35498452, 0.8521339, -0.34058094, -3.8101537, -1.6217759, -1.9368143
286, 473118838, 0.18251204, -0.33939877, 0.84213895, -0.37723076, -2.4846146, 0.41777903, -1.1951132
287, 473135505, 0.18744045, -0.3211706, 0.8293831, -0.41694403, -1.475888, 1.5278579, -0.40999317
288, 473152172, 0.19555727, -0.30217007, 0.8127565, -0.45812744, 0.0026031437, 3.2799678, -1.5260334
289, 473168839, 0.20888886, -0.28414106, 0.79199314, -0.49837688, -0.5855588, 4.23505, -1.6096907
290, 473185506, 0.22664723, -0.26632446, 0.7673912, -0.5374163, -1.5148984, 3.8605165, -0.12936115
291, 473202173, 0.24795218, -0.24863487, 0.739562, -0.57424027, -2.1403646, 3.909036, 1.5728254
292, 473218840, 0.27131367, -0.23170987, 0.70918196, -0.6080818, -2.009326, 4.068159, 3.3081188
293, 473235507, 0.2943736, -0.2150285, 0.67738694, -0.63895005, -4.497205, 3.7535665, 3.7400627
294, 473252174, 0.31435886, -0.19589558, 0.6459996, -0.6674513, -4.126989, 4.264536, 2.2524376
295, 473268841, 0.33326304, -0.17924634, 0.6152044, -0.6916163, -0.870011, 5.5900373, 0.8622103
296, 473285508, 0.35041058, -0.16841035, 0.585403, -0.71144706, -1.6392138, 5.6219172, 0.7173643
297, 473302175, 0.36413726, -0.16026175, 0.5583703, -0.7279739, -3.5106077, 4.5834923, -1.2451525
298, 473318842, 0.37375706, -0.15222129, 0.5369646, -0.74081475, -2.5191426, 3.132806, -2.8433056
299, 473335509, 0.3786212, -0.14447203, 0.52339333, -0.74955773, -1.3410147, 1.8239417, -4.747346
300, 473352176, 0.37916902, -0.13974485, 0.51846963, -0.753588, -0.18337506, 1.1733227, -6.3504286
301, 473368843, 0.37553874, -0.13727407, 0.52188766, -0.75350046, -1.8729346, 1.1154096, -5.443223
302, 473385510, 0.3673802, -0.13473336, 0.5325906, -0.7504859, -3.2194438, 2.5069392, -3.804873
303, 473402177, 0.35567212, -0.13252865, 0.5479654, -0.7454332, -4.412439, 3.6873548, -2.3233438
304, 473418844, 0.34071332, -0.12982188, 0.565931, -0.73944986, -5.302546, 4.54721, -1.8095026
305, 473435511, 0.3235065, -0.12618102, 0.58449256, -0.73334414, -5.165791, 5.5329723, -1.942492
306, 473452178, 0.30966857, -0.12389292, 0.5973442, -0.7293413, 1.2288227, 0.52671564, 6.325182
307, 473468845, 0.29807794, -0.12390554, 0.605378, -0.72754234, -0.22221144, 4.4010906, 9.363832
308, 473485512, 0.28421476, -0.12468158, 0.6168919, -0.7232733, -0.48297518, 5.2928243, -2.918738
309, 473502179, 0.27409962, -0.13135348, 0.6288665, -0.7156436, 1.4394845, 4.8028994, 0.43261147
310, 473518846, 0.26917624, -0.14678875, 0.6393786, -0.7051207, -5.665949, 1.7883145, 0.345685
311, 473535513, 0.25758547, -0.15408672, 0.65222347, -0.69607097, -9.214188, 1.250852, 0.66985416
312, 473552180, 0.236471, -0.1484674, 0.665787, -0.69193196, -6.0143695, 4.742226, 1.0914831
313, 473568847, 0.2194893, -0.1447377, 0.6767274, -0.6876907, 1.1484063, 4.5596886, -1.9678087
314, 473585514, 0.21495083, -0.15253589, 0.68365234, -0.68055236, 1.2590185, 3.3128304, 0.28309822
315, 473602181, 0.21458538, -0.16368222, 0.6888197, -0.6728236, -1.0595734, 2.1919887, 1.742588
316, 473618848, 0.21373682, -0.17322221, 0.69336116, -0.66600615, -2.3663917, 1.1123135, 1.8293686
317, 473635515, 0.21038954, -0.17807883, 0.6979368, -0.6609929, -2.7477546, 0.5296966, 0.90962124
318, 473652182, 0.20451337, -0.17855838, 0.7026155, -0.65774304, -1.1727941, 0.7245577, 0.48714924
319, 473668849, 0.19798127, -0.17792225, 0.70702493, -0.655184, -0.6720602, 1.1898702, 0.69648933
320, 473685516, 0.19267747, -0.177982, 0.71052325, -0.65296066, -0.42435476, 1.5613469, 1.0617352
321, 473702183, 0.1918637, -0.18106791, 0.7125614, -0.6501248, 0.77278054, 1.3439573, 0.2523718
322, 473718850, 0.1958307, -0.188881, 0.7134893, -0.64568615, 1.1062816, 0.7007845, -0.24425983
323, 473735517, 0.20007482, -0.19724643, 0.7143981, -0.6408607, -0.7753073, -0.4827364, 0.011528015
324, 473752184, 0.19967934, -0.200552, 0.7164831, -0.6376223, -1.1739625, -1.4337475, -0.07794762
325, 473768851, 0.19742106, -0.20195806, 0.71938145, -0.63461125, 1.1980913, -1.0180689, -0.8437252
326, 473785518, 0.19621322, -0.20525114, 0.72238296, -0.63050663, 1.7207388, -0.93497056, -0.618351
327, 473802185, 0.19611134, -0.21049984, 0.7256058, -0.6250838, 1.1854625, -1.4369388, -0.9370079
328, 473818852, 0.19529355, -0.21591693, 0.7296481, -0.6187545, 0.47014508, -1.9430526, -1.0955744
329, 473835519, 0.19302896, -0.22056046, 0.7346429, -0.61187893, 0.8791176, -1.6331573, -0.94993496
330, 473852186, 0.18999563, -0.22543374, 0.7404203, -0.60403824, 1.0465963, -0.8780655, -0.46231365
331, 473868853, 0.18719912, -0.23120278, 0.74655396, -0.5951154, 1.366974, -0.44597852, 0.62857914
332, 473885520, 0.1845171, -0.2378271, 0.75288504, -0.5852855, 1.0673796, -0.091530345, 0.7256403
333, 473902187, 0.18296996, -0.24537328, 0.7594162, -0.57411176, 2.132181, 0.41254848, 1.1716919
334, 473918854, 0.18036416, -0.25246167, 0.7664823, -0.56235236, 1.292222, -0.76658344, 0.6296396
335, 473935521, 0.17485926, -0.25706562, 0.77442807, -0.55100447, 0.06266376, -1.6588769, 1.2092066
336, 473952188, 0.16711608, -0.26010597, 0.783105, -0.5395988, 0.8420008, -1.3079166, 1.0621653
337, 473968855, 0.1603769, -0.26434377, 0.7916752, -0.52693, 2.0218437, -0.92858803, 1.5543041
338, 473985522, 0.15423018, -0.26990667, 0.8003279, -0.512681, 1.7196414, -1.0961199, 1.180768
339, 474002189, 0.1480003, -0.2759869, 0.8092176, -0.49708894, 2.505405, -2.3689058, 0.7650461
340, 474018856, 0.14188987, -0.28257126, 0.8182629, -0.4800727, 4.688592, -4.081527, -0.17678547
341, 474035523, 0.13679105, -0.29072574, 0.82751215, -0.4604275, 5.2383146, -6.785202, -0.27118492
342, 474052190, 0.12858236, -0.2996396, 0.8372379, -0.43899748, 7.403258, -7.157068, 0.35599995
343, 474068857, 0.12138906, -0.31128147, 0.8461146, -0.41528532, 14.056471, -7.1617327, 0.8808546
344, 474085524, 0.12589264, -0.32969198, 0.8527593, -0.38504446, 18.385397, -9.25843, -0.35896778
345, 474102191, 0.13805066, -0.35084382, 0.85796446, -0.34892792, 9.516415, -11.431048, -1.3901939
346, 474118858, 0.1445221, -0.36718124, 0.86374843, -0.3134215, -0.07390769, -14.038016, 2.37673
347, 474135525, 0.14296786, -0.37479925, 0.8703039, -0.28576234, 1.5364177, -13.0743885, 5.0872383
348, 474152192, 0.1375709, -0.37656897, 0.87518376, -0.2707889, 3.7925794, -9.672245, 1.1583414
349, 474168859, 0.12777014, -0.37478495, 0.8788331, -0.26620802, -2.147746, -4.5501604, 1.7572956
350, 474185526, 0.1165615, -0.37455228, 0.8821008, -0.2608168, -3.62123, -2.4362776, 4.6266947
351, 474202193, 0.11325921, -0.37426937, 0.88327724, -0.25868765, 7.419893, -2.174116, -3.8764625
352, 474218860, 0.118826084, -0.3733266, 0.8816059, -0.26321417, 4.5512595, -3.6485763, -1.8151984
353, 474235527, 0.13041607, -0.37218535, 0.8773664, -0.2733148, 0.37146753, -1.179191, -2.5690346
354, 474252194, 0.1420948, -0.36926827, 0.87153697, -0.28961477, -1.9171636, -1.8007516, -1.7623444
355, 474268861, 0.14873992, -0.3618479, 0.8643797, -0.31590146, -2.17108, -2.1700392, -2.0738378
356, 474285528, 0.15487197, -0.3508588, 0.8550291, -0.3490577, -0.99066365, -0.4127601, -1.9831128
357, 474302195, 0.16295347, -0.3378079, 0.84317356, -0.38521886, -0.18037584, 1.4295517, -1.0881453
358, 474318862, 0.17278196, -0.3227833, 0.8284704, -0.4237892, 0.33822381, 2.9659247, -0.5184641
359, 474335529, 0.18810028, -0.30798066, 0.8098061, -0.4625837, 0.7698631, 3.822477, -1.1254072
360, 474352196, 0.20749822, -0.29366404, 0.78740525, -0.50070155, -1.374295, 3.582925, -0.61526394
361, 474368863, 0.22903323, -0.27816385, 0.76153725, -0.5387326, -2.9919145, 3.1761005, 1.6265011
362, 474385530, 0.2506435, -0.2608463, 0.7321894, -0.5770956, -4.260074, 4.3633437, 3.1807938
363, 474402197, 0.27135172, -0.24169737, 0.69977915, -0.615031, -4.5846305, 5.197499, 2.835822
364, 474418864, 0.29189482, -0.22097427, 0.66514856, -0.65080625, -4.777501, 6.243214, 1.9663506
365, 474435531, 0.31378022, -0.20259702, 0.6292109, -0.68161094, -3.18814, 7.1081, 1.3170404
366, 474452198, 0.33549422, -0.18934448, 0.5933974, -0.70673555, -4.0950794, 8.643858, 2.008504
367, 474468865, 0.35269317, -0.1788111, 0.5607424, -0.72746503, -5.504045, 7.014186, 1.9525709
368, 474485532, 0.3625931, -0.16803376, 0.53624547, -0.74346155, -5.3378954, 5.7504673, -3.9324455
369, 474502199, 0.36564207, -0.15820014, 0.523514, -0.7531368, -4.652094, 3.2668703, -7.466485
370, 474518866, 0.36078972, -0.14958644, 0.5252183, -0.75604475, -3.2197523, 1.3770657, -10.358149
371, 474535533, 0.348573, -0.14516754, 0.5392847, -0.7527275, -4.2980204, 2.846128, -9.1695595
372, 474552200, 0.33071592, -0.14348122, 0.56147105, -0.74484473, -6.194502, 5.23972, -6.3820963
373, 474568867, 0.3098668, -0.14197265, 0.58529097, -0.73570645, -6.689417, 7.100423, -1.7832127
374, 474585534, 0.29549336, -0.13674578, 0.5971073, -0.73311013, 6.6704364, 1.7837648, 21.7766
375, 474602201, 0.2761588, -0.13276279, 0.60673225, -0.7334779, -6.3052793, 3.6236658, 1.8757181
376, 474618868, 0.25907433, -0.13217093, 0.6228358, -0.7262851, 3.8395627, 6.74049, -8.714301
377, 474635535, 0.25213373, -0.14592002, 0.6341537, -0.71623206, -0.3391362, 5.9540234, 3.5967722
378, 474652202, 0.24304031, -0.16131894, 0.6463683, -0.7050666, -10.457096, 5.666677, -2.051898
379, 474668869, 0.22663593, -0.16324845, 0.660225, -0.6972033, -5.2992935, 3.1759317, 3.8377476
380, 474685536, 0.21337481, -0.16508706, 0.671317, -0.6903291, 0.17731796, 3.6775553, 2.137003
381, 474702203, 0.21091129, -0.17639044, 0.6793105, -0.6803996, 2.0211937, 3.5267954, -1.4452744
382, 474718870, 0.211067, -0.19056942, 0.68553543, -0.6702079, -2.4813964, 1.7463926, 0.25728798
383, 474735537, 0.20919397, -0.19993809, 0.6912035, -0.6621963, -3.8665233, -0.43882602, 2.1775913
384, 474752204, 0.20303504, -0.20251551, 0.6974559, -0.65675175, -0.85693127, -0.13794202, 1.1384296
385, 474768871, 0.20040989, -0.20825541, 0.70241815, -0.6504441, 2.3583317, 1.3152461, 0.07086563
386, 474785538, 0.20200562, -0.21790984, 0.7061026, -0.64275306, 0.2752706, 1.0775335, 0.122691154
387, 474802205, 0.2046099, -0.22727084, 0.7089204, -0.6355453, -1.2852672, -0.40711853, 0.7376604
388, 474818872, 0.2058185, -0.23389715, 0.7116448, -0.6296794, -1.6260409, 0.069073945, 0.43581867
389, 474835539, 0.20615458, -0.23883437, 0.71472883, -0.6241992, -0.2164504, 0.32819542, 0.5552263
390, 474852206, 0.20731299, -0.24436203, 0.71768713, -0.6182533, 0.47375235, 0.09764038, 0.31184387
391, 474868873, 0.2086468, -0.25055644, 0.7205178, -0.6120012, -0.20919348, -0.5465721, 0.100865364
392, 474885540, 0.20989247, -0.2564699, 0.72356904, -0.6054912, 0.11450446, -0.9377683, 0.035606384
393, 474902207, 0.21013331, -0.26161444, 0.72707564, -0.5989711, -0.13167612, -1.2633771, -0.63638496
394, 474918874, 0.20874283, -0.26565745, 0.73135126, -0.5924366, -0.109240614, -0.88440055, -0.630497
395, 474935541, 0.20670296, -0.2695529, 0.7359721, -0.58563125, 0.6629403, -0.93032867, -0.7146921
396, 474952208, 0.20433699, -0.27374166, 0.7407949, -0.5783926, 0.38596687, -1.4345975, -0.97644806
397, 474968875, 0.20126273, -0.27768618, 0.74603504, -0.5708053, -0.072627515, -2.2223792, -1.1487083
398, 474985542, 0.19469379, -0.27934733, 0.7521876, -0.5641602, -1.1556705, -1.578514, -0.6213827
399, 475002209, 0.18796013, -0.28138658, 0.7586384, -0.55674416, 2.905775, 0.96732575, 0.0067300797
400, 475018876, 0.18572178, -0.28787664, 0.7645804, -0.54594404, 3.6385343, 1.1265166, 0.9547167
401, 475035543, 0.18324798, -0.29433846, 0.77111703, -0.53401047, 1.51088, -0.94344014, 1.3199148
402, 475052210, 0.17612052, -0.29711053, 0.77915883, -0.5230888, 1.0598414, -1.8076966, 0.57065296
403, 475068877, 0.16509317, -0.29749402, 0.7882968, -0.51267266, 2.328593, -1.5034604, 0.81391716
404, 475085544, 0.15477914, -0.2992798, 0.7974874, -0.5004924, 4.20522, -1.5740918, 1.6293907
405, 475102211, 0.14660352, -0.30379313, 0.8064795, -0.48560432, 4.1779666, -2.9584556, 1.4345436
406, 475118878, 0.13955624, -0.3106704, 0.815471, -0.4679941, 4.723382, -4.5835896, 1.3909969
407, 475135545, 0.13461238, -0.32025754, 0.82402426, -0.44755098, 8.739174, -5.88472, 0.46096325
408, 475152212, 0.13261597, -0.33297932, 0.8320123, -0.42343432, 9.714063, -6.376695, 1.4746523
409, 475168879, 0.13387169, -0.34934705, 0.83886516, -0.39540347, 14.064411, -6.149203, 1.6865311
410, 475185546, 0.14305048, -0.36962527, 0.84329057, -0.36301255, 15.7669935, -10.493367, -0.48831844
411, 475202213, 0.15665075, -0.38966134, 0.8463647, -0.32755876, 9.31849, -11.986786, -1.3347588
412, 475218880, 0.16431805, -0.40637672, 0.8500813, -0.29192922, 0.7058349, -15.959825, 2.5110312
413, 475235547, 0.15956938, -0.41219234, 0.8562623, -0.26730755, 1.0830258, -15.127239, 3.086011
414, 475252214, 0.1482576, -0.40956998, 0.8618264, -0.25986725, 1.9224318, -11.627682, -0.88700104
415, 475268881, 0.1286296, -0.4044125, 0.86776567, -0.25863305, -5.674137, -4.272443, 6.6984024
416, 475285548, 0.11472458, -0.40244022, 0.87173194, -0.25488633, 2.214852, -1.7596211, 0.9751301
417, 475302215, 0.11194025, -0.39967003, 0.87266004, -0.25729653, 7.457373, -3.436282, -3.670928
418, 475318882, 0.11648828, -0.39635873, 0.87069774, -0.26686922, 1.9070003, -2.2109742, -1.4443827
419, 475335549, 0.12926437, -0.39304557, 0.8663282, -0.27979442, 0.7568304, -0.21017905, -2.9306421
420, 475352216, 0.14319375, -0.3875925, 0.8596925, -0.30033308, -1.2992529, -1.6097356, -1.9147263
421, 475368883, 0.1548456, -0.37915272, 0.8509706, -0.32881406, -2.379763, -0.8191026, -1.857852
422, 475385550, 0.16891438, -0.36920822, 0.8394856, -0.36113828, -1.2797786, 0.6774488, -2.151061
423, 475402217, 0.18283881, -0.35680988, 0.8250078, -0.39827424, -2.1670663, 0.9136865, 0.18415642
424, 475418884, 0.19572785, -0.34133345, 0.80759585, -0.4392887, -2.2441075, 2.3481257, -0.25422955
425, 475435551, 0.21129267, -0.324341, 0.78659594, -0.4810705, -1.1144133, 2.9428568, -0.8570452
426, 475452218, 0.22862531, -0.3051534, 0.76212424, -0.5232419, -2.4179976, 3.2967947, 0.12610435
427, 475468885, 0.24845354, -0.28361052, 0.7346096, -0.56408185, -2.744311, 4.6094117, 1.7509117
428, 475485552, 0.27171263, -0.2623771, 0.7037187, -0.6017593, -2.1961203, 5.8021193, 3.369503
429, 475502219, 0.29604715, -0.24248609, 0.67026085, -0.6358542, -4.5004444, 5.7680936, 3.5404224
430, 475518886, 0.31703708, -0.22129977, 0.63678086, -0.6671041, -5.6267695, 6.149683, 2.380951
431, 475535553, 0.33546284, -0.20108205, 0.60439646, -0.69407445, -3.3651664, 7.392042, 0.036629677
432, 475552220, 0.35196275, -0.18626389, 0.5737891, -0.71568006, -2.4798052, 7.5185504, -0.21319962
433, 475568887, 0.3648932, -0.17522588, 0.54690766, -0.7328332, -4.648802, 5.9845304, -1.1265726
434, 475585554, 0.3727812, -0.16363314, 0.5272881, -0.745808, -5.0649643, 4.646215, -3.406632
435, 475602221, 0.3755224, -0.15244567, 0.5165468, -0.75427204, -2.5006077, 3.5426714, -5.9029703
436, 475618888, 0.37420425, -0.14718062, 0.5142994, -0.7575019, -1.3703487, 2.874108, -7.075096
437, 475635555, 0.36929396, -0.14716662, 0.5200665, -0.7559753, -3.6662598, 2.795895, -5.62127
438, 475652222, 0.36014688, -0.14839816, 0.533042, -0.75109404, -5.2355757, 4.3476677, -4.459008
439, 475668889, 0.34767595, -0.15092075, 0.5502805, -0.7440025, -6.3953032, 5.9877973, -3.0566454
440, 475685556, 0.33236608, -0.15289293, 0.5697935, -0.73586386, -7.4588895, 7.220825, -2.9261055
441, 475702223, 0.31776646, -0.1527883, 0.5863496, -0.72929996, -2.509538, 3.0499852, 3.223711
442, 475718890, 0.30975366, -0.15143676, 0.5914817, -0.7288847, 3.3600671, 1.6820968, 19.144156
443, 475735557, 0.29530188, -0.14635003, 0.6001307, -0.7288522, -1.2190385, 3.99113, -4.8062453
444, 475752224, 0.2853174, -0.1505987, 0.61210406, -0.72197413, 5.6772113, 5.0334306, -1.3997898
445, 475768891, 0.27986234, -0.16261224, 0.62116784, -0.7137147, -3.0286832, 4.40272, 1.5426111
446, 475785558, 0.26924342, -0.16898918, 0.6332776, -0.7056301, -4.6378093, 1.8766407, -3.2424498
447, 475802225, 0.25573552, -0.17184949, 0.6458948, -0.6984917, -4.645884, 0.3885206, 2.8222132
448, 475818892, 0.243334, -0.17438482, 0.65678144, -0.69211304, -1.6295346, 1.4703357, 0.85749817
449, 475835559, 0.23776138, -0.18297516, 0.66488993, -0.68404305, -0.08248712, 1.754595, -0.9190979
450, 475852226, 0.23847029, -0.1967191, 0.67059094, -0.67434794, -2.0323894, 1.6623741, -0.8488045
451, 475868893, 0.23946095, -0.20783013, 0.6760535, -0.665147, -2.7426019, 0.21842614, 1.7339144
452, 475885560, 0.23640557, -0.2128485, 0.68190974, -0.6586432, -2.1191542, 0.6490972, 1.6572046
453, 475902227, 0.23158114, -0.21484138, 0.6878006, -0.65356517, 0.1309492, 1.8520719, 0.47467804
454, 475918894, 0.22876157, -0.21835014, 0.6924651, -0.6484499, 0.43517905, 1.6740122, 0.71878624
455, 475935561, 0.22840728, -0.22361337, 0.6957998, -0.6431901, -0.23497805, 0.86582667, 0.7972851
456, 475952228, 0.22927451, -0.22961445, 0.69840586, -0.6379213, -0.7370673, 0.35160613, 0.6991396
457, 475968895, 0.2313982, -0.23588857, 0.70030326, -0.63276434, -0.5668804, 0.068504654, 0.8464918
458, 475985562, 0.232794, -0.24072617, 0.70220584, -0.62830603, -0.9055273, -0.5929515, -0.5065832
459, 476002229, 0.2332325, -0.24436474, 0.7044956, -0.62416196, -0.4815211, -0.6692795, -0.5520525
460, 476018896, 0.23329335, -0.24771017, 0.70706546, -0.61990017, 0.004623254, -0.46448702, 0.107875824
461, 476035563, 0.23272331, -0.25084794, 0.709999, -0.61548376, 0.5618484, -0.68682086, 0.20958805
462, 476052230, 0.23183128, -0.2543601, 0.7134864, -0.61032474, 1.658382, -0.9869159, -1.0216045
463, 476068897, 0.23015597, -0.2585126, 0.71788687, -0.6040213, 2.0258927, -2.1553235, -1.6663828
464, 476085564, 0.22654974, -0.26253027, 0.72370434, -0.5966648, 2.1467173, -3.3652654, -1.9781823
465, 476102231, 0.2209978, -0.2659605, 0.73082787, -0.58848906, 1.6553621, -3.6098886, -1.0523005
466, 476118898, 0.21398748, -0.26915365, 0.73894423, -0.57942283, 1.5801554, -2.6703677, 0.030231476
467, 476135565, 0.20660895, -0.27277696, 0.74770236, -0.5690788, 2.462372, -0.88459414, 0.62968254
468, 476152232, 0.19930825, -0.27724016, 0.7568514, -0.55730957, 2.4299486, -0.18884252, 1.0031424
469, 476168899, 0.19090275, -0.28111637, 0.76645875, -0.5450454, 1.7357103, -0.33116964, 1.5331383
470, 476185566, 0.18118066, -0.2840288, 0.776533, -0.5324486, 1.3892417, -0.49444932, 1.8459616
471, 476202233, 0.17103523, -0.28667188, 0.78661156, -0.5194347, 1.921091, -0.72452784, 2.5607424
472, 476218900, 0.16179763, -0.29055992, 0.796292, -0.5052912, 2.5534492, -1.0016353, 2.4334507
473, 476235567, 0.1543409, -0.29657954, 0.80555224, -0.4891917, 3.1469548, -2.6372147, 1.7141333
474, 476252234, 0.14752527, -0.3040216, 0.81457394, -0.47146592, 4.5797815, -4.2817855, 0.4054575
475, 476268901, 0.14300685, -0.31347388, 0.82322353, -0.4512094, 7.431602, -7.0963435, -0.52930737
476, 476285568, 0.13800627, -0.32485628, 0.8319024, -0.42821136, 8.103693, -6.847302, 0.463912
477, 476302235, 0.13584356, -0.33974272, 0.8394576, -0.40179107, 15.359889, -9.03511, 0.7339506
478, 476318902, 0.14289214, -0.35939413, 0.84489846, -0.36955106, 18.116497, -10.092909, -2.311451
479, 476335569, 0.15450583, -0.38155675, 0.848575, -0.3323656, 7.916584, -11.562023, -2.325585
480, 476352236, 0.16026768, -0.3982051, 0.85356575, -0.2952566, 1.3869699, -13.975974, 2.6462955
481, 476368903, 0.1613653, -0.40522748, 0.85878754, -0.26877454, 3.8769968, -14.601721, 5.5145187
482, 476385570, 0.15529817, -0.40507895, 0.8626286, -0.26013336, 1.4598327, -10.15994, 0.552969
483, 476402237, 0.13617334, -0.40291142, 0.8678398, -0.25685987, -8.40131, -4.44977, 6.881771
484, 476418904, 0.123252064, -0.401072, 0.87068146, -0.25664702, 7.1585517, -2.2914073, -3.279181
485, 476435571, 0.12380591, -0.39813554, 0.87032664, -0.26209837, 7.187498, -3.0142572, -1.2851963
486, 476452238, 0.1340644, -0.3970472, 0.866366, -0.27165067, 0.6620934, -0.25249028, -1.9222531
487, 476468905, 0.1471942, -0.39533323, 0.8602079, -0.28651652, -0.9462638, -1.1652862, -2.3226557
488, 476485572, 0.15733877, -0.3898689, 0.85210574, -0.31171533, -2.7714183, -1.9384992, -1.6222506
489, 476502239, 0.16631807, -0.38065803, 0.8418262, -0.3446306, -2.5738447, -0.73030233, -2.4811435
490, 476518906, 0.17744705, -0.3679921, 0.8293108, -0.38123715, -1.8017759, 1.0282155, -2.2531738
491, 476535573, 0.19001079, -0.35195845, 0.81411475, -0.42100123, -1.8378501, 2.3170846, -0.02473259
492, 476552240, 0.2051678, -0.3335784, 0.79530126, -0.4627432, -0.6595322, 3.6841397, -0.8402262
493, 476568907, 0.22422904, -0.3148425, 0.7721654, -0.5043411, -1.4597535, 4.089738, -0.8998642
494, 476585574, 0.24557284, -0.2947517, 0.7454512, -0.5450888, -2.9059286, 4.0281053, 0.90814114
495, 476602241, 0.2681606, -0.27324572, 0.71536577, -0.58453566, -3.6300936, 4.888512, 3.5839148
496, 476618908, 0.2908432, -0.2514717, 0.682518, -0.6215667, -4.172924, 5.903629, 3.271388
497, 476635575, 0.31153542, -0.2300716, 0.6487849, -0.65505344, -5.354554, 6.15778, 1.8484373
498, 476652242, 0.33064792, -0.21043594, 0.6157929, -0.68351424, -4.249707, 6.8089895, 0.7284279
499, 476668909, 0.34880587, -0.19498223, 0.5841455, -0.7064662, -3.8925126, 7.967291, 0.68112946
500, 476685576, 0.36275366, -0.1826026, 0.55636454, -0.7249335, -4.999038, 6.920831, -0.97676754
501, 476702243, 0.3705864, -0.1706012, 0.5358733, -0.7391917, -5.1194663, 5.259014, -4.2166877
502, 476718910, 0.37251264, -0.15886866, 0.52539545, -0.74830365, -3.9073615, 3.655104, -5.6648555
503, 476735577, 0.36853904, -0.14969832, 0.5259201, -0.7517853, -2.5782306, 2.6909652, -7.460782
504, 476752244, 0.35974297, -0.14600475, 0.5358962, -0.7497247, -3.2697897, 3.0859559, -6.720831
505, 476768911, 0.346441, -0.1454219, 0.5532251, -0.7434898, -5.4844904, 4.6411796, -4.4854403
506, 476785578, 0.3297183, -0.14605641, 0.57401425, -0.7351633, -6.1296544, 6.429255, -2.7542644
507, 476802245, 0.3169129, -0.14555064, 0.58789355, -0.7299084, 2.0736837, 0.5455839, 13.546209
508, 476818912, 0.2995914, -0.13963243, 0.59777176, -0.7303565, -5.023264, 5.0977964, 8.80652
509, 476835579, 0.28244138, -0.13628218, 0.6114741, -0.726469, 1.686785, 6.65943, -6.8871565
510, 476852246, 0.27130854, -0.1425719, 0.6242023, -0.71863776, 2.9261212, 5.0936375, 0.052417755
511, 476868913, 0.26383543, -0.15647262, 0.6357493, -0.7083319, -5.6115665, 3.4655952, -0.19048405
512, 476885580, 0.25027516, -0.163769, 0.64906776, -0.69946903, -9.014932, 2.5327635, 1.2077417
513, 476902247, 0.23093705, -0.16069905, 0.6625085, -0.69421196, -3.9302268, 3.609521, 1.1456633
514, 476918914, 0.22081247, -0.16470891, 0.67242426, -0.68699515, 3.079982, 3.5983593, 0.007293701
515, 476935581, 0.22067828, -0.17896186, 0.67930806, -0.67662257, 1.0949743, 3.4353805, -0.5205488
516, 476952248, 0.22300231, -0.19410598, 0.684801, -0.66606635, -2.3529665, 1.6644449, 1.0372124
517, 476968915, 0.22187841, -0.20328711, 0.6902861, -0.65799177, -3.9977915, -0.8146039, 1.588995
518, 476985582, 0.21600062, -0.20547062, 0.6963311, -0.65288, -2.0111935, -0.9128821, 0.95252705
519, 477002249, 0.20908856, -0.20594934, 0.7020252, -0.6488694, -0.49011853, -0.017386137, 0.21954632
520, 477018916, 0.20516168, -0.20853254, 0.706763, -0.64413714, 0.44628474, 0.84358346, 0.29225063
521, 477035583, 0.2046456, -0.21410483, 0.7103505, -0.63850236, 0.45441303, 1.1972355, 0.11833382
522, 477052250, 0.20638753, -0.22179845, 0.71308595, -0.63223565, 0.15347484, 0.80421144, 0.35708237
523, 477068917, 0.20759769, -0.22831374, 0.715931, -0.6262769, -0.41592374, -0.16394873, 0.6392374
524, 477085584, 0.20713525, -0.23283562, 0.7192586, -0.6209295, -0.07310237, -0.61311585, 0.18826771
525, 477102251, 0.20651683, -0.23722734, 0.7227079, -0.61544394, 0.4867153, -0.18239802, -0.07836628
526, 477118918, 0.20727675, -0.24292757, 0.7259779, -0.6090833, 0.7023989, 0.17057239, -0.1501236
527, 477135585, 0.2087006, -0.24903642, 0.7291166, -0.6023433, 0.15872146, -0.15078759, 0.047257423
528, 477152252, 0.20899627, -0.25418365, 0.7326221, -0.5958019, 0.12786305, -0.8854083, -0.32040882
529, 477168919, 0.20696166, -0.25752738, 0.7367222, -0.58999205, -0.38003734, -1.2552676, -0.26277828
530, 477185586, 0.20378675, -0.26028916, 0.7413146, -0.58410376, 0.63299406, -0.92900366, -0.58453274
531, 477202253, 0.20104483, -0.26437637, 0.7462173, -0.5769312, 1.6575046, -0.8117575, -0.25618362
532, 477218920, 0.19916151, -0.26983923, 0.7515762, -0.5680307, 2.5290313, -1.4129379, 0.24323654
533, 477235587, 0.19614603, -0.2753784, 0.75789934, -0.55793, 2.2438345, -1.6518804, 0.07815266
534, 477252254, 0.19186714, -0.28051117, 0.76517826, -0.54681504, 2.6836152, -2.2998085, 0.5519657
535, 477268921, 0.18500379, -0.28463358, 0.7737177, -0.5349037, 2.3292599, -2.4633963, 0.22214222
536, 477285588, 0.17616719, -0.2880855, 0.7832111, -0.522069, 2.8170137, -2.0735426, 1.0666857
537, 477302255, 0.16670847, -0.29216665, 0.7931506, -0.5077034, 3.5742438, -1.8733205, 1.222558
538, 477318922, 0.15749516, -0.29781204, 0.80322415, -0.49126163, 3.6893656, -2.657886, 1.1215467
539, 477335589, 0.14797403, -0.3047826, 0.8133566, -0.47293362, 4.921544, -3.9974246, 0.62803364
540, 477352256, 0.13989668, -0.31386843, 0.8229984, -0.45231956, 8.492544, -6.110291, -0.35978603
541, 477368923, 0.1331763, -0.32550707, 0.832389, -0.42830077, 8.893954, -7.208318, 1.0086908
542, 477385590, 0.12750998, -0.33994395, 0.84091467, -0.4013047, 14.829386, -6.8927026, 2.3328962
543, 477402257, 0.1330435, -0.3604458, 0.84707004, -0.3672255, 18.75378, -9.975339, -1.1115704
544, 477418924, 0.14741401, -0.38408947, 0.8503498, -0.3281058, 9.875852, -12.281054, -2.487389
545, 477435591, 0.15518147, -0.40296727, 0.8536022, -0.29138166, -0.28286996, -14.543413, 4.2157984
546, 477452258, 0.15528394, -0.41112489, 0.85818356, -0.26530695, 2.0319252, -13.259568, 5.316907
547, 477468925, 0.14868885, -0.4112991, 0.86175776, -0.25710303, 1.406357, -10.562936, -1.0519791
548, 477485592, 0.13139991, -0.40868965, 0.8666097, -0.2543591, -8.700541, -3.403271, 7.4621468
549, 477502259, 0.12097254, -0.4067858, 0.8696172, -0.2523107, 4.5432935, -0.5185114, -2.3446932
550, 477518926, 0.1223106, -0.40316886, 0.8703376, -0.25497293, 7.442787, -2.4819212, -2.316155
551, 477535593, 0.13312295, -0.40003332, 0.868042, -0.26221868, 0.66521794, -1.8377589, -2.2062593
552, 477552260, 0.14727762, -0.395246, 0.8639339, -0.27515787, -1.2185656, -2.5949216, -2.1345458
553, 477568927, 0.15590161, -0.38553488, 0.85855186, -0.29991665, -3.8662906, -4.037048, -1.2808142
554, 477585594, 0.15981397, -0.3712647, 0.8515557, -0.33388427, -2.8959057, -1.9428064, -1.8999233
555, 477602261, 0.16553378, -0.35379326, 0.8421169, -0.37184942, -0.4150213, 0.61387295, -1.6608658
556, 477618928, 0.1740495, -0.33433172, 0.8295938, -0.41195557, -0.5496037, 2.8464952, -0.4315815
557, 477635595, 0.18750203, -0.31445742, 0.8130754, -0.4526276, 0.17865905, 4.0008836, -1.3771133
558, 477652262, 0.20634493, -0.29578125, 0.79211044, -0.4924431, -0.80637974, 3.7221339, -1.2965622
559, 477668929, 0.22752774, -0.27652538, 0.7671573, -0.5322016, -2.4319308, 3.075538, 0.4080181
560, 477685596, 0.24937937, -0.25609696, 0.738662, -0.571495, -3.397318, 4.5090494, 2.9168959
561, 477702263, 0.27102986, -0.23546335, 0.7069336, -0.60938376, -3.5751886, 5.3996234, 3.8528347
562, 477718930, 0.29137295, -0.21404848, 0.6735519, -0.6446836, -5.0258565, 5.6944027, 2.6131792
563, 477735597, 0.311621, -0.19399583, 0.6400051, -0.67502254, -3.478218, 6.6425414, 0.7496481
564, 477752264, 0.33334354, -0.1801975, 0.60644037, -0.6990317, -2.546465, 7.252914, 0.6929102
565, 477768931, 0.35155872, -0.17023952, 0.57485294, -0.7190082, -4.9072585, 7.289535, 0.89476967
566, 477785598, 0.3635024, -0.16028544, 0.548564, -0.7357012, -5.9479194, 5.935467, -2.5670757
567, 477802265, 0.37131748, -0.15191695, 0.5304557, -0.74676996, -3.5357044, 4.970513, -4.628919
568, 477818932, 0.37443188, -0.14729895, 0.5226471, -0.7516304, -2.5492172, 2.936211, -7.428265
569, 477835599, 0.37188816, -0.14742538, 0.52542865, -0.75092864, -3.4679031, 1.299283, -7.691098
570, 477852266, 0.36263728, -0.14839137, 0.5380098, -0.7463404, -5.7667365, 2.1960223, -5.551495
571, 477868933, 0.34839153, -0.14981598, 0.5569663, -0.73889846, -5.9715614, 4.651205, -3.5395489
572, 477885600, 0.3314767, -0.15250008, 0.57736963, -0.7304213, -6.0007687, 5.037164, -0.9218073
573, 477902267, 0.3175546, -0.14922425, 0.5897236, -0.7274074, 2.758659, 0.83782524, 17.223999
574, 477918934, 0.29485336, -0.13740441, 0.60280776, -0.72856605, -6.0645137, 3.779868, 3.4170618
575, 477935601, 0.27211055, -0.12864944, 0.6197711, -0.7247711, 1.751584, 7.372267, -6.787158
576, 477952268, 0.2582707, -0.13210662, 0.63341016, -0.717384, 3.4209018, 6.7679534, 0.86048317
577, 477968935, 0.24910006, -0.14448124, 0.6452987, -0.70757884, -5.413125, 3.953819, -1.9024158
578, 477985602, 0.23438917, -0.15048385, 0.6578633, -0.6997402, -9.58404, 2.9089434, 1.0673323
579, 478002269, 0.21605733, -0.14838216, 0.6699672, -0.69458616, -2.035721, 4.0676913, 1.565445
580, 478018936, 0.2090496, -0.1561075, 0.67853695, -0.68667346, 3.779631, 3.3017757, 0.6451168
581, 478035603, 0.21082807, -0.17261821, 0.68450105, -0.67617804, 0.7922494, 2.8559208, 0.09649277
582, 478052270, 0.21402343, -0.18742782, 0.68994737, -0.66561365, -3.7791204, 0.8932781, 1.3765268
583, 478068937, 0.20943996, -0.19175825, 0.69609606, -0.65940726, -5.7506647, -0.9759555, 1.6746349
584, 478085604, 0.19874346, -0.18886921, 0.70276964, -0.65646654, -1.8460563, 0.3097181, 0.48719501
585, 478102271, 0.1899072, -0.18670833, 0.70850194, -0.6535324, 1.8485173, 1.4373868, 0.7471924
586, 478118938, 0.18848965, -0.19123732, 0.7125265, -0.64823616, 2.8663867, 1.7198622, 0.19768238
587, 478135605, 0.19385155, -0.20250806, 0.7147767, -0.64071095, 0.95015526, 1.4001783, 0.24432373
588, 478152272, 0.19845976, -0.21252888, 0.716621, -0.633959, -1.6794482, 0.37104064, 0.61079407
589, 478168939, 0.19892047, -0.21729413, 0.7192054, -0.6292549, -1.4883868, -0.8726692, 0.25935745
590, 478185606, 0.19751461, -0.21967779, 0.72228235, -0.6253335, -0.5619299, -0.9626988, -0.23211098
591, 478202273, 0.19693683, -0.22320592, 0.7252913, -0.62076724, 0.8430007, -0.5497835, -0.38964844
592, 478218940, 0.19817933, -0.22878902, 0.7280525, -0.6150808, 0.4181718, -0.48646846, -0.45027924
593, 478235607, 0.19910838, -0.2345567, 0.7310354, -0.60904044, 0.01942294, -0.70718735, -0.33258533
594, 478252274, 0.19895847, -0.23979172, 0.73456633, -0.60277015, 0.8669104, -0.6780572, -0.5599394
595, 478268941, 0.19836271, -0.2451336, 0.7385225, -0.59594506, 1.5657692, -1.1286098, -0.4046631
596, 478285608, 0.19630525, -0.25029165, 0.7432167, -0.58860123, 1.4282144, -1.3462058, -0.38892746
597, 478302275, 0.19410677, -0.25579944, 0.74875236, -0.57988197, 2.579276, -1.6029595, -0.40396786
598, 478318942, 0.19101365, -0.26119635, 0.7552987, -0.5699285, 2.8135946, -1.9804567, -0.021338463
599, 478335609, 0.18568012, -0.26581794, 0.7628817, -0.5593565, 1.9364861, -2.4841647, 0.42772388
600, 478352276, 0.17848454, -0.26992798, 0.7715061, -0.54778147, 2.4654374, -2.4469614, 0.15528107
601, 478368943, 0.17011724, -0.27403206, 0.7808579, -0.53500617, 2.208052, -2.1297054, 0.9023733
602, 478385610, 0.16098857, -0.27828678, 0.79067284, -0.52103734, 2.2759166, -1.4806077, 1.7365999
603, 478402277, 0.15226531, -0.28361717, 0.8005235, -0.50551265, 3.233959, -1.7347459, 2.3144197
604, 478418944, 0.14416091, -0.29065153, 0.8103366, -0.4879534, 4.11775, -2.637021, 1.397501
605, 478435611, 0.13647346, -0.29936472, 0.8199196, -0.46849972, 5.622573, -4.203155, 0.96967506
606, 478452278, 0.13195106, -0.31022266, 0.82895905, -0.44629815, 8.60215, -7.660262, 0.19748211
607, 478468945, 0.1256049, -0.32194662, 0.83827883, -0.42174256, 8.45364, -6.452081, 1.1635408
608, 478485612, 0.12409359, -0.33730018, 0.8462745, -0.39325976, 17.643652, -9.470421, 1.0709391
609, 478502279, 0.13400379, -0.35741502, 0.8520685, -0.35816357, 16.262737, -10.808868, -2.0941176
610, 478518946, 0.14901818, -0.37919313, 0.85591894, -0.3184543, 5.98576, -12.897304, -0.5675287
611, 478535613, 0.15626684, -0.3942858, 0.86038405, -0.28260073, 0.84858036, -15.449845, 5.152648
612, 478552280, 0.15464632, -0.4000344, 0.8651025, -0.2601134, 0.4916125, -14.295994, 3.5601263
613, 478568947, 0.14225243, -0.39830938, 0.86967254, -0.2545343, -1.2027712, -8.495946, 1.5792313
614, 478585614, 0.12652552, -0.3963796, 0.8740619, -0.25078762, -4.889624, -2.4593146, 6.949627
615, 478602281, 0.12088487, -0.39590943, 0.8760842, -0.24723057, 8.15429, -0.15613028, -4.122487
616, 478618948, 0.12555209, -0.39518264, 0.87510985, -0.24950826, 5.721564, -3.152817, -1.9349194
617, 478635615, 0.13962975, -0.39443856, 0.8710918, -0.25714833, 0.69227576, -0.5938185, -2.6028433
618, 478652282, 0.15558437, -0.39291316, 0.8650432, -0.27040204, -2.2670264, -1.7018827, -2.1941814
619, 478668949, 0.16468093, -0.3870957, 0.8575542, -0.29604444, -4.7936444, -3.0580404, -2.4862704
620, 478685616, 0.1705496, -0.37694135, 0.8482804, -0.33053398, -3.5487337, -0.9322309, -2.553667
621, 478702283, 0.1774806, -0.36352834, 0.836249, -0.37018883, -1.3870493, 1.0552038, -1.6632271
622, 478718950, 0.18591264, -0.3469323, 0.82108796, -0.4133927, -1.340856, 2.7536004, -0.6483269
623, 478735617, 0.19905227, -0.3290653, 0.8017464, -0.45749497, -0.26437426, 4.454005, -1.9847875
624, 478752284, 0.21774268, -0.31143, 0.77798855, -0.5003375, -1.4874284, 4.3953643, -2.1085358
625, 478768951, 0.23991024, -0.2919892, 0.75042576, -0.54226494, -2.846249, 3.9409826, 0.15651798
626, 478785618, 0.2643839, -0.271266, 0.7192966, -0.5823509, -3.2939856, 5.057822, 3.29498
627, 478802285, 0.28907531, -0.25062776, 0.6850352, -0.61996144, -4.045421, 5.4083447, 4.24821
628, 478818952, 0.3106894, -0.22811449, 0.6500854, -0.6548506, -6.8506823, 5.1989746, 2.977024
629, 478835619, 0.32995856, -0.20520204, 0.615597, -0.68561214, -4.0945263, 6.7291713, 1.9129095
630, 478852286, 0.34796357, -0.18768372, 0.582347, -0.7103327, -2.0861502, 7.887976, 1.2626896
631, 478868953, 0.3612457, -0.17491595, 0.5533122, -0.72990125, -3.7433972, 7.1067104, -1.107996
632, 478885620, 0.3688333, -0.16450135, 0.53216, -0.744118, -4.5514708, 5.8212185, -4.819979
633, 478902287, 0.36903626, -0.15288341, 0.52318674, -0.7528073, -4.598251, 2.3795056, -7.3024173
634, 478918954, 0.36082357, -0.14017114, 0.52839303, -0.75562125, -2.9785483, 2.2942088, -9.292914
635, 478935621, 0.34726056, -0.13285415, 0.54400384, -0.7522127, -2.9100952, 4.0462832, -7.103307
636, 478952288, 0.33059412, -0.1302864, 0.5661206, -0.7438043, -5.226426, 6.186681, -3.8643556
637, 478968955, 0.31164822, -0.13021171, 0.5900429, -0.7333308, -5.6845827, 8.157935, -1.1772013
638, 478985622, 0.3005841, -0.13235308, 0.6033385, -0.7267178, 6.1583457, 0.16047572, 14.630096
639, 479002289, 0.29026586, -0.13593414, 0.6098826, -0.7247865, -3.4419408, 3.25723, 8.454315
640, 479018956, 0.2763326, -0.13902992, 0.622711, -0.7187117, -3.1926234, 6.5842137, -8.286846
641, 479035623, 0.266724, -0.14562732, 0.63521636, -0.7100389, -0.19731422, 4.589856, 1.0478878
642, 479052290, 0.25888193, -0.15757054, 0.6463536, -0.7002736, -6.8463616, 4.1120467, -0.032053947
643, 479068957, 0.24306881, -0.16051595, 0.6602017, -0.6923079, -6.261506, 3.514569, -0.05699253
644, 479085624, 0.22187802, -0.15635493, 0.67355597, -0.68749547, -0.77471447, 4.1616764, 2.9200077
645, 479102291, 0.2092261, -0.1593305, 0.6835903, -0.6808427, 2.0316033, 2.2176862, -0.852128
646, 479118958, 0.20481594, -0.1691075, 0.6915286, -0.6717484, -0.07420183, 1.4442824, 0.14235497
647, 479135625, 0.20266788, -0.18023945, 0.6982434, -0.6624952, -1.820995, 0.75839573, 1.2506094
648, 479152292, 0.20081258, -0.1896654, 0.7043463, -0.65391284, -3.1883392, 0.03208953, 1.5303078
649, 479168959, 0.19569802, -0.19294544, 0.7104368, -0.6478875, -3.654815, 0.23778479, 0.5743437
650, 479185626, 0.18776415, -0.19236094, 0.71638215, -0.64384997, 0.056022294, 1.345931, 0.42858315
651, 479202293, 0.18152535, -0.19327492, 0.7211501, -0.6400315, 1.4930764, 2.1490655, 0.8361311
652, 479218960, 0.17942573, -0.19780429, 0.7244431, -0.63550484, 1.1099174, 1.9007877, 0.5370836
653, 479235627, 0.18137054, -0.20565233, 0.72675544, -0.6297956, 0.3069913, 0.88611174, 0.20227242
654, 479252294, 0.18432543, -0.21354194, 0.72888255, -0.6238259, -0.8654207, -0.44769445, 0.27875137
655, 479268961, 0.18377712, -0.21768501, 0.7316668, -0.6192797, -1.7605152, -1.2451832, -0.030603409
656, 479285628, 0.18091914, -0.2189216, 0.7351431, -0.61555713, -0.25365815, -0.82715094, -0.18803406
657, 479302295, 0.17889866, -0.22101028, 0.73859626, -0.61125267, 1.1554587, -0.5136834, -0.40870857
658, 479318962, 0.17848182, -0.2250182, 0.7419451, -0.60583234, 1.1573536, -0.7167105, -0.57469845
659, 479335629, 0.17786747, -0.22964501, 0.7455772, -0.59978783, 0.66201454, -1.1697569, -0.7447405
660, 479352296, 0.17625165, -0.23403534, 0.7497199, -0.5933695, 0.81909156, -1.2882481, -0.54752064
661, 479368963, 0.17400923, -0.23879823, 0.75444734, -0.5860972, 1.5665436, -0.837691, -0.33973217
662, 479385630, 0.17174713, -0.24427046, 0.7595415, -0.577872, 1.5736731, -1.0490369, 0.65013504
663, 479402297, 0.1686824, -0.24966204, 0.765326, -0.5687669, 1.5956033, -0.6275751, 0.9055233
664, 479418964, 0.16488174, -0.25451785, 0.7716511, -0.55910087, 1.7161435, -0.796268, 1.0554466
665, 479435631, 0.15988466, -0.25886405, 0.77869236, -0.5486976, 1.5807495, -1.1939602, 0.9181347
666, 479452298, 0.15351065, -0.2625097, 0.7864244, -0.5376469, 1.5786021, -1.9387403, 1.1830511
667, 479468965, 0.14607039, -0.26616317, 0.7947496, -0.5255457, 2.3084662, -2.2126656, 1.1350412
668, 479485632, 0.13884482, -0.2711118, 0.8034474, -0.5115634, 3.1545732, -2.7646053, 1.1676092
669, 479502299, 0.13246086, -0.27825123, 0.8124206, -0.49498242, 4.3219714, -4.0160966, 0.7033882
670, 479518966, 0.12644334, -0.28747192, 0.8214462, -0.47602794, 6.1645384, -6.0921054, 0.055485725
671, 479535633, 0.12097138, -0.2987982, 0.8305636, -0.4541524, 7.4609184, -9.08892, -0.10303688
672, 479552300, 0.11323421, -0.3116084, 0.8397714, -0.4299613, 10.333633, -7.961528, 0.94193554
673, 479568967, 0.1087807, -0.32828385, 0.8474378, -0.40280312, 17.135262, -8.214627, 1.3633814
674, 479585634, 0.11716374, -0.34971365, 0.85297656, -0.36933526, 18.444496, -9.056744, -1.4695101
675, 479602301, 0.13159025, -0.3719342, 0.8571325, -0.33117545, 5.7296743, -11.869483, -0.32322216
676, 479618968, 0.14080828, -0.3878057, 0.86204314, -0.2943906, 0.7105999, -12.580691, 3.7596426
677, 479635635, 0.14587255, -0.3949862, 0.86611474, -0.26936397, 3.8937387, -12.660579, 5.0404196
678, 479652302, 0.14043467, -0.39459145, 0.8692055, -0.26279682, -0.56739265, -8.809371, -0.36544704
679, 479668969, 0.12548867, -0.39384156, 0.87298846, -0.2589151, -6.8080134, -3.2851694, 6.0370264
680, 479685636, 0.11855534, -0.3930013, 0.8743489, -0.2588691, 7.340374, -2.7679498, -3.716887
681, 479702303, 0.12140465, -0.3901171, 0.8731597, -0.2658308, 6.4609904, -3.9539008, -2.159791
682, 479718970, 0.13348426, -0.38873535, 0.8683588, -0.27753204, 0.4437636, -0.9454129, -2.781798
683, 479735637, 0.14733323, -0.38657773, 0.86131525, -0.2949428, -1.4810331, -1.8173416, -2.1832976
684, 479752304, 0.15665324, -0.38006046, 0.852473, -0.3229674, -3.5239682, -2.6077023, -1.56005
685, 479768971, 0.16475993, -0.36898476, 0.84138274, -0.35886478, -2.4616318, -0.541626, -1.5618525
686, 479785638, 0.1769003, -0.35480118, 0.8274844, -0.3976132, -0.3700428, 1.4711918, -1.7427664
687, 479802305, 0.19239399, -0.33890063, 0.8104432, -0.43739814, -0.9867336, 3.332718, -0.5307598
688, 479818972, 0.21229935, -0.32285208, 0.78935343, -0.47709665, -0.18781815, 4.088344, -1.5161028
689, 479835639, 0.23626819, -0.30707732, 0.76405793, -0.5158495, -1.3122793, 3.139049, -0.5406971
690, 479852306, 0.2606534, -0.28984496, 0.7353962, -0.5542983, -3.3638551, 3.199299, 2.088933
691, 479868973, 0.2822573, -0.26937407, 0.70453894, -0.59278804, -4.173547, 4.0475445, 3.947647
692, 479885640, 0.30045286, -0.24597473, 0.672498, -0.6300601, -4.837001, 4.8484855, 3.1501656
693, 479902307, 0.3168967, -0.22218326, 0.64046574, -0.66333926, -4.1695666, 6.6102366, 1.736475
694, 479918974, 0.3347605, -0.20205143, 0.6085668, -0.69047934, -3.4005077, 7.071005, 1.3675413
695, 479935641, 0.35086578, -0.18457994, 0.578582, -0.7127909, -4.7012477, 7.6000977, 0.76333714
696, 479952308, 0.36173886, -0.16882452, 0.5529116, -0.7313935, -4.8868923, 7.337517, -2.3777838
697, 479968975, 0.36818656, -0.15680408, 0.53380287, -0.74492294, -3.400751, 6.039997, -4.822994
698, 479985642, 0.37020144, -0.1492863, 0.52442056, -0.7520983, -3.1368077, 3.6285455, -6.9840384
699, 480002309, 0.366331, -0.144535, 0.5266056, -0.75339377, -3.5578878, 2.3860874, -8.092458
700, 480018976, 0.35651517, -0.14267626, 0.5388867, -0.74976385, -5.176246, 3.2911246, -6.258134
701, 480035643, 0.34181637, -0.14242953, 0.55792177, -0.7426998, -6.305261, 5.5540705, -3.7264352
702, 480052310, 0.32445323, -0.14458317, 0.5788563, -0.73399967, -6.356432, 6.4213524, -1.4337187
703, 480068977, 0.3123134, -0.14356719, 0.5908778, -0.7298744, 3.7673686, 1.305195, 15.594681
704, 480085644, 0.29389048, -0.13798304, 0.6016558, -0.72979707, -4.825045, 4.7729387, 6.092225
705, 480102311, 0.27595755, -0.13564223, 0.61710316, -0.72431827, 2.0681987, 8.268824, -6.881146
706, 480118978, 0.26744732, -0.14501296, 0.6290143, -0.7153939, 4.291237, 6.284014, 1.4748125
707, 480135645, 0.26253542, -0.16210428, 0.63978636, -0.70390004, -5.287357, 3.8333893, -2.5837607
708, 480152312, 0.25228748, -0.17273705, 0.65204614, -0.6937961, -9.687546, 1.6164492, 1.0648289
709, 480168979, 0.23375982, -0.1711523, 0.6646699, -0.68868107, -4.7437563, 2.9215481, 2.7013655
710, 480185646, 0.22284527, -0.17451349, 0.67437404, -0.681989, 2.6257539, 2.5212255, -0.47177887
711, 480202313, 0.22225626, -0.18730164, 0.6810125, -0.6721208, 0.43560126, 2.7425802, 0.020546913
712, 480218980, 0.22386707, -0.2008042, 0.68673235, -0.6617887, -1.826015, 1.7752734, 1.0831747
713, 480235647, 0.2234826, -0.21046856, 0.6919225, -0.6534573, -2.096333, 1.0061688, 1.9182377
714, 480252314, 0.22107452, -0.21631534, 0.6970301, -0.64690584, -1.0658259, 0.71500176, 1.0800352
715, 480268981, 0.21762565, -0.21994118, 0.7018462, -0.6416239, -0.6111158, 0.8789419, 1.0747061
716, 480285648, 0.21516627, -0.22378479, 0.7057745, -0.63679713, -0.3414772, 0.8005796, 0.99056816
717, 480302315, 0.21563128, -0.22974692, 0.7083304, -0.631658, -0.7758827, 0.5716732, 0.6917677
718, 480318982, 0.2187282, -0.23710063, 0.70995146, -0.6260306, -0.89563847, 0.21725656, 0.31018353
719, 480335649, 0.22161767, -0.2436979, 0.7114613, -0.62074494, -0.7222302, -0.64011675, 0.21583843
720, 480352316, 0.22228801, -0.24775407, 0.71356535, -0.61646974, -0.72587055, -1.2795008, -0.51873016
721, 480368983, 0.22218603, -0.25090602, 0.71622723, -0.6121295, 1.063724, -1.3535013, -1.0695753
722, 480385650, 0.222608, -0.25565076, 0.7189689, -0.6067753, 0.9889915, -1.367376, -0.955698
723, 480402317, 0.22280478, -0.26108295, 0.72201747, -0.6007405, 0.75907964, -1.8287773, -0.9141607
724, 480418984, 0.22155774, -0.26599252, 0.72581434, -0.5944395, 0.58692235, -2.5239873, -1.570591
725, 480435651, 0.21817346, -0.2698791, 0.7304688, -0.5882053, -0.17097595, -2.8905427, -1.7712231
726, 480452318, 0.21163647, -0.27221447, 0.73649395, -0.5819712, 0.39068422, -1.6204927, -1.7648506
727, 480468985, 0.20515257, -0.27568913, 0.74320704, -0.5740694, 2.825226, 0.052326396, 0.15469933
728, 480485652, 0.20062724, -0.2813511, 0.7501644, -0.56378037, 3.1655266, 0.23156345, 0.9331646
729, 480502319, 0.19391261, -0.28561807, 0.75792265, -0.553514, 1.3753586, -0.44525257, 1.322772
730, 480518986, 0.18477345, -0.28786653, 0.76680815, -0.54314035, 2.3394935, -0.39194655, 1.2364082
731, 480535653, 0.17402515, -0.2893147, 0.77634895, -0.5322588, 2.436576, -0.92971987, 1.4975672
732, 480552320, 0.1633871, -0.29119655, 0.78614837, -0.52008104, 2.6195545, -1.597056, 2.1500807
733, 480568987, 0.1538345, -0.29465988, 0.79592127, -0.50598836, 3.2927, -2.699751, 2.1087046
734, 480585654, 0.14505494, -0.3003024, 0.8057681, -0.48940733, 4.375445, -3.8914545, 1.1562405
735, 480602321, 0.1369457, -0.3087964, 0.8156023, -0.46977445, 7.0242047, -5.684594, 0.15471554
736, 480618988, 0.13096145, -0.32045493, 0.8251772, -0.4463686, 9.945987, -9.2304945, 0.32359028
737, 480635655, 0.12335509, -0.33429784, 0.83474976, -0.41979256, 12.435761, -7.4535537, 1.6684694
738, 480652322, 0.122204214, -0.35315484, 0.842175, -0.3887075, 20.438747, -8.779138, 1.6544294
739, 480668989, 0.13390473, -0.3763438, 0.8472969, -0.35003904, 15.986331, -10.164079, -2.2043505
740, 480685656, 0.14866465, -0.39807123, 0.85153407, -0.30713534, 2.8003237, -14.644639, 0.42390347
741, 480702323, 0.15503366, -0.4085706, 0.85733914, -0.2720457, 1.710715, -16.169191, 5.457055
742, 480718990, 0.15266007, -0.40915644, 0.86181086, -0.25801596, 3.953018, -12.487044, 1.4619923
743, 480735657, 0.13768649, -0.405208, 0.86670053, -0.2562878, -7.4651055, -6.2874517, 4.0772533
744, 480752324, 0.121012606, -0.4013533, 0.87056154, -0.25767955, -0.9575046, -3.9883611, 0.51810074
745, 480768991, 0.11597249, -0.3948854, 0.8721241, -0.26461294, 9.863224, -2.2864323, -4.1955543
746, 480785658, 0.12295537, -0.39055774, 0.86943436, -0.2764691, 2.0694568, -2.3848312, -0.887269
747, 480802325, 0.13715424, -0.38748854, 0.8637325, -0.29156834, -0.4066663, -1.3420999, -2.2379303
748, 480818992, 0.14963631, -0.38069934, 0.8557029, -0.31694517, -2.6686962, -3.566538, -1.447689
749, 480835659, 0.1576486, -0.36896002, 0.84538645, -0.35262105, -3.793082, -1.3068047, -1.4220695
750, 480852326, 0.16870272, -0.35411152, 0.8323833, -0.39151874, -1.0604656, 1.7585863, -1.9668727
751, 480868993, 0.18382165, -0.3376455, 0.8161217, -0.4314569, -0.62804294, 3.013426, -0.7461195
752, 480885660, 0.20323765, -0.32089064, 0.795951, -0.47137058, -0.7346958, 4.569303, -1.5242672
753, 480902327, 0.2272149, -0.3047341, 0.77165943, -0.50995743, -2.1604125, 3.642207, -0.6793642
754, 480918994, 0.25157246, -0.28710294, 0.74352527, -0.5490519, -4.429782, 3.2711535, 2.1521158
755, 480935661, 0.27289852, -0.26644593, 0.7127239, -0.58869535, -5.4457626, 4.170561, 3.20057
756, 480952328, 0.290492, -0.24152558, 0.6812444, -0.62704897, -5.7587905, 5.0745726, 1.9716063
757, 480968995, 0.3073717, -0.21618786, 0.6495959, -0.6609199, -3.8841777, 6.565079, 1.0844145
758, 480985662, 0.32655364, -0.19727287, 0.61759984, -0.6877654, -2.5578454, 7.719819, 0.43236637
759, 481002329, 0.3442045, -0.18459058, 0.5864096, -0.7096321, -4.3846383, 7.7424593, 0.73123646
760, 481018996, 0.3561798, -0.17415172, 0.5593143, -0.7279968, -5.6003838, 6.5971713, -1.939477
761, 481035663, 0.3638898, -0.16524914, 0.53931, -0.74123305, -4.5860295, 5.8457456, -4.6059923
762, 481052330, 0.36689857, -0.15762275, 0.5284505, -0.74918973, -3.5055404, 4.585266, -5.8230066
763, 481068997, 0.364437, -0.15273121, 0.52764964, -0.75196373, -3.0917733, 3.0430903, -7.0427513
764, 481085664, 0.35604426, -0.14986481, 0.5365919, -0.7502312, -4.7754664, 2.2873988, -5.962092
765, 481102331, 0.34221956, -0.14684846, 0.55380756, -0.74473035, -6.010244, 3.4172375, -3.684352
766, 481118998, 0.32391363, -0.14447226, 0.5750834, -0.73721874, -6.0385127, 5.9478083, -1.8549871
767, 481135665, 0.30767605, -0.14246196, 0.59102166, -0.73194134, 1.582533, -0.03410394, 10.049303
768, 481152332, 0.28909522, -0.13466647, 0.601831, -0.73218375, -2.8095794, 6.317195, 11.17812
769, 481168999, 0.26888913, -0.12730372, 0.61573833, -0.7296323, 0.6209353, 7.078675, -6.0194235
770, 481185666, 0.25422588, -0.12934998, 0.6295963, -0.7226693, 4.114908, 6.61119, -2.0600963
771, 481202333, 0.24718872, -0.14431597, 0.6413917, -0.7118229, -2.8013308, 4.1677766, -0.10432434
772, 481219000, 0.23604578, -0.15617618, 0.65441483, -0.7011687, -9.305114, 2.1235971, 1.2308636
773, 481235667, 0.21485944, -0.15328051, 0.66836035, -0.69544196, -5.9322543, 4.2106633, 1.421361
774, 481252334, 0.20050798, -0.15420844, 0.6794877, -0.688707, 3.6164384, 3.6275737, -0.004313469
775, 481269001, 0.19943732, -0.16741839, 0.6870634, -0.6783394, 1.972697, 3.4699986, -0.03491211
776, 481285668, 0.20205572, -0.18286915, 0.6932298, -0.6672103, -2.6583254, 2.497928, 1.1235361
777, 481302335, 0.20244873, -0.19343513, 0.698664, -0.6583847, -3.6188438, 0.46904993, 1.9839058
778, 481319002, 0.19843487, -0.19766062, 0.70407313, -0.6525637, -2.8674302, -0.158191, 1.2314568
779, 481335669, 0.19247548, -0.19858173, 0.7092952, -0.6484005, -0.71081895, 0.9259793, 0.95023155
780, 481352336, 0.1891497, -0.20118691, 0.7133127, -0.644155, 1.8803989, 1.6483414, 1.0685549
781, 481369003, 0.19210057, -0.21006969, 0.71551573, -0.6379733, 1.3314391, 2.0596466, 0.16027355
782, 481385670, 0.19880098, -0.22174267, 0.71639794, -0.6309413, -0.8099094, 0.6084813, 0.6344719
783, 481402337, 0.20304723, -0.22988158, 0.7176182, -0.62526387, -2.0838232, -0.7094037, 0.8579197
784, 481419004, 0.20424026, -0.23416397, 0.719495, -0.6211157, -1.2644585, -1.0410868, 0.33588982
785, 481435671, 0.20495361, -0.23760587, 0.7215631, -0.61716187, 0.48022562, -0.8163928, -0.19379902
786, 481452338, 0.20700176, -0.24297194, 0.723452, -0.61215746, 1.2776409, -0.64186066, -0.69213676
787, 481469005, 0.21013692, -0.24990115, 0.7253778, -0.6059895, 0.80397415, -1.1337725, -0.9352865
788, 481485672, 0.2114124, -0.255923, 0.72818196, -0.59963655, 0.26717436, -1.8913885, -1.1943979
789, 481502339, 0.20977074, -0.2599094, 0.73237777, -0.5933554, 1.2418526, -2.207319, -1.3585768
790, 481519006, 0.20576598, -0.2628667, 0.73781604, -0.5866802, 1.6795111, -1.8282722, -1.4495411
791, 481535673, 0.20125288, -0.26640874, 0.7440591, -0.57870895, 2.0292313, -1.3887242, -0.46088028
792, 481552340, 0.1967377, -0.27061236, 0.75088364, -0.569422, 2.4760373, -1.0718217, 0.7579584
793, 481569007, 0.1914278, -0.2749478, 0.7582921, -0.55924654, 2.2802734, -1.2020513, 0.73581505
794, 481585674, 0.1845296, -0.27875596, 0.7665638, -0.5482961, 1.9988868, -1.4294131, 0.27262497
795, 481602341, 0.17577887, -0.28147358, 0.77571374, -0.53679335, 1.4445255, -1.6317408, 0.87598324
796, 481619008, 0.16586274, -0.28363433, 0.78541654, -0.5245633, 2.0476084, -1.5336348, 1.5438328
797, 481635675, 0.15607166, -0.28671777, 0.79514855, -0.5110558, 2.6118793, -1.1942953, 1.9822206
798, 481652342, 0.1480264, -0.29197732, 0.80463797, -0.49537858, 3.8144484, -2.0699856, 1.8614998
799, 481669009, 0.14043513, -0.29882768, 0.81418747, -0.47758064, 4.8621035, -3.3020985, 0.58270264
800, 481685676, 0.1348205, -0.30761147, 0.8234522, -0.4573068, 8.333108, -6.168589, -0.46916962
801, 481702343, 0.12945169, -0.31823933, 0.832964, -0.43375295, 8.836045, -6.7221446, 0.4735098
802, 481719010, 0.1244151, -0.33133513, 0.8417294, -0.40771827, 15.702182, -6.521357, 1.6266441
803, 481735677, 0.13060197, -0.35051244, 0.84742844, -0.37676772, 20.718634, -8.13671, -0.5200796
804, 481752344, 0.14778373, -0.37221968, 0.8505264, -0.3409133, 10.771995, -8.949727, -2.6647024
805, 481769011, 0.16473678, -0.39140064, 0.85389274, -0.30089736, 0.5239153, -12.711453, -0.26630974
806, 481785678, 0.16851594, -0.40036085, 0.8594214, -0.26965338, -2.4056287, -16.99724, 8.055765
807, 481802345, 0.15933244, -0.3979873, 0.865948, -0.25760052, 1.6744308, -13.398494, 2.81668
808, 481819012, 0.14095557, -0.39151797, 0.8724366, -0.25632814, -2.969564, -5.753183, 3.646985
809, 481835679, 0.12454685, -0.38869685, 0.87707514, -0.253272, -0.72784173, -1.6649361, 2.8879385
810, 481852346, 0.12622246, -0.38836595, 0.8780287, -0.24962007, 9.120857, -1.6879759, -3.3895526
811, 481869013, 0.13698612, -0.38838112, 0.87590605, -0.25137255, 2.6530106, -4.0280867, -1.5450201
812, 481885680, 0.14997655, -0.38679165, 0.87162066, -0.26111588, -1.5013548, -2.4561272, -2.5541906
813, 481902347, 0.16108482, -0.3835336, 0.8655103, -0.2790165, -3.0782902, -2.4459836, -2.5268307
814, 481919014, 0.16701068, -0.37686342, 0.8579937, -0.30648497, -3.9488463, -1.7248454, -2.5970664
815, 481935681, 0.17263064, -0.36635682, 0.84849477, -0.34065044, -2.5343387, 0.19677958, -2.528133
816, 481952348, 0.18379536, -0.35379863, 0.8358643, -0.3773344, -0.30374348, 1.719848, -2.0645747
817, 481969015, 0.19837378, -0.34039527, 0.8194969, -0.41618297, -1.1334891, 2.4241025, -0.9563122
818, 481985682, 0.21582645, -0.32608843, 0.7990953, -0.45665812, -1.98277, 2.8150036, -1.4756527
819, 482002349, 0.23476222, -0.31003812, 0.7749233, -0.49825835, -2.3398933, 2.9599607, -1.5075665
820, 482019016, 0.25562215, -0.2919478, 0.7473836, -0.5393017, -2.8750932, 3.3177304, 0.4227028
821, 482035683, 0.27758652, -0.27258998, 0.7167619, -0.578703, -3.429638, 4.3580503, 3.3563347
822, 482052350, 0.29754233, -0.25146753, 0.68379927, -0.61697316, -5.206556, 4.5797806, 4.550003
823, 482069017, 0.31360972, -0.22646926, 0.6504734, -0.65364325, -6.3832974, 4.696521, 2.6412401
824, 482085684, 0.3278156, -0.20064832, 0.6179483, -0.68587285, -3.9556277, 6.692353, 1.2419062
825, 482102351, 0.34274644, -0.18015155, 0.586354, -0.71152216, -2.140895, 8.251608, 1.7534285
826, 482119018, 0.35511053, -0.16508067, 0.5577498, -0.7318229, -3.0290756, 8.246914, -0.27366352
827, 482135685, 0.362376, -0.15447459, 0.5356444, -0.7469345, -3.0382776, 6.407338, -5.0119653
828, 482152352, 0.363828, -0.14788194, 0.5243399, -0.7555344, -2.495062, 2.5863678, -7.499858
829, 482169019, 0.35827416, -0.1416958, 0.5269555, -0.7575516, -2.8886323, 2.0458827, -8.789799
830, 482185686, 0.34726664, -0.13944839, 0.54084337, -0.7532948, -3.3611228, 3.3446183, -7.4375954
831, 482202353, 0.3311007, -0.1390752, 0.5622054, -0.7449567, -6.1206594, 5.2707186, -4.749739
832, 482219020, 0.31123886, -0.13808447, 0.5859611, -0.7353349, -6.151768, 7.238509, -0.69214725
833, 482235687, 0.29766497, -0.13542277, 0.59894234, -0.73097813, 6.2022805, 1.3732377, 18.020437
834, 482252354, 0.2816044, -0.13425335, 0.60804576, -0.7300411, -3.6658955, 4.01593, 4.881831
835, 482269021, 0.26489282, -0.13529614, 0.6234192, -0.72310424, -0.73122835, 7.0556216, -8.58619
836, 482285688, 0.25487754, -0.14344107, 0.6360369, -0.7140895, 1.2072837, 4.669403, 1.9618015
837, 482302355, 0.24696313, -0.15855215, 0.6478913, -0.702931, -8.233339, 3.9170756, -1.9539328
838, 482319022, 0.23121442, -0.16295198, 0.66198957, -0.69409, -7.7422304, 3.055268, 1.3267069
839, 482335689, 0.21095634, -0.1592332, 0.67517155, -0.68868726, -1.7856337, 4.0440803, 3.7173748
840, 482352356, 0.19990766, -0.16206762, 0.68486184, -0.68171835, 1.8105917, 3.08277, 0.017697334
841, 482369023, 0.19699138, -0.17187968, 0.69235283, -0.6725355, 0.41111723, 3.132987, -0.33419037
842, 482385690, 0.19752547, -0.18381642, 0.698204, -0.6631073, -0.8488182, 1.4773222, 1.8145313
843, 482402357, 0.19650683, -0.19250263, 0.70330584, -0.65551, -3.9748132, 0.11367276, 1.7414799
844, 482419024, 0.18994266, -0.19355083, 0.70857656, -0.65144736, -2.854402, 0.19631855, 1.0580177
845, 482435691, 0.18124337, -0.19142911, 0.713592, -0.6490737, 1.084031, 1.1558003, 0.9187527
846, 482452358, 0.17827547, -0.19415009, 0.7172501, -0.64504296, 2.2440321, 2.1452267, 0.5790453
847, 482469025, 0.1811941, -0.20261279, 0.7191775, -0.6394569, 0.75780845, 1.481717, 0.28149605
848, 482485692, 0.18518087, -0.21151048, 0.72070163, -0.6336916, -0.70242256, 0.18327218, 0.26016808
849, 482502359, 0.18673904, -0.21728884, 0.72276354, -0.62891287, -1.2130673, -1.0179379, 0.11026096
850, 482519026, 0.18609038, -0.22076586, 0.72555673, -0.6246638, -0.2913559, -1.0012058, -0.6650238
851, 482535693, 0.18615735, -0.22522113, 0.7284563, -0.6196586, 1.4672844, -0.7721427, -0.6424713
852, 482552360, 0.18757468, -0.23143446, 0.73125833, -0.6136118, 0.86280304, -0.99740386, -0.7419071
853, 482569027, 0.18815652, -0.23741116, 0.7344358, -0.60732347, 0.12168839, -1.462074, -0.5975361
854, 482585694, 0.18706033, -0.24248968, 0.7383504, -0.6008747, 0.5377496, -1.6731886, -1.3274555
855, 482602361, 0.1848849, -0.24722664, 0.7429063, -0.5939628, 0.8298814, -0.93304527, -0.46616268
856, 482619028, 0.18198912, -0.25196123, 0.74804246, -0.5863725, 1.5649238, -0.23087507, 0.17448997
857, 482635695, 0.17907004, -0.2569074, 0.75361085, -0.57793397, 2.0474172, -0.17043723, 0.651988
858, 482652362, 0.1760754, -0.2620866, 0.7597314, -0.56843716, 2.1704736, -0.5014187, 0.7370348
859, 482669029, 0.1721513, -0.26673514, 0.7663271, -0.5585372, 1.452629, -0.882302, 1.2694597
860, 482685696, 0.16724493, -0.27092287, 0.773496, -0.54803157, 1.8753092, -0.97635597, 0.9589777
861, 482702363, 0.16185848, -0.2751894, 0.7812172, -0.53644836, 2.2249198, -1.4482876, 1.0103035
862, 482719030, 0.15559295, -0.2792698, 0.78944576, -0.5240031, 2.2272913, -1.7912588, 1.4400883
863, 482735697, 0.14879723, -0.2834218, 0.79807466, -0.5105025, 2.8921597, -2.2599812, 1.6015921
864, 482752364, 0.14230286, -0.28890687, 0.8068492, -0.4952591, 3.5927324, -2.8412702, 1.0981655
865, 482769031, 0.13643783, -0.29628503, 0.81570673, -0.47773102, 4.8308306, -4.4198074, 0.39579487
866, 482785698, 0.1321184, -0.30559063, 0.8244549, -0.4576438, 8.503597, -6.5897713, -1.2276592
867, 482802365, 0.12902254, -0.31750727, 0.83319515, -0.43397322, 9.085128, -8.360664, -0.2264576
868, 482819032, 0.12570684, -0.33160174, 0.8415211, -0.40753505, 14.412099, -7.5174007, 0.8311615
869, 482835699, 0.13373059, -0.35185373, 0.8470827, -0.37519422, 20.540129, -11.094104, -1.2988157
870, 482852366, 0.1510513, -0.37451297, 0.850091, -0.33804396, 10.277394, -10.315214, -2.7981162
871, 482869033, 0.1661261, -0.39623874, 0.85280275, -0.2968656, -0.55451864, -13.471389, -0.35816288
872, 482885700, 0.16596362, -0.4055681, 0.85811126, -0.26761952, -2.7804515, -17.40888, 7.815258
873, 482902367, 0.15375161, -0.4025186, 0.8641997, -0.2598127, 2.6445255, -11.424908, 1.1206598
874, 482919034, 0.1351318, -0.39776647, 0.86981004, -0.25875947, -4.180597, -3.359108, 5.122813
875, 482935701, 0.12462133, -0.39714098, 0.8729421, -0.25441188, 1.7557445, -1.9291314, 0.34667206
876, 482952368, 0.12356044, -0.39494947, 0.8739456, -0.25489512, 6.954064, -2.652912, -3.228578
877, 482969035, 0.12926582, -0.3913331, 0.8723238, -0.2630682, 1.1668373, -4.0585666, -1.161335
878, 482985702, 0.13805662, -0.38664255, 0.8687679, -0.27693847, -1.1237924, -2.156581, -2.1895084
879, 483002369, 0.14436118, -0.3790371, 0.8637271, -0.29911712, -2.7036922, -2.5805888, -1.2616348
880, 483019036, 0.14731655, -0.3670913, 0.8569812, -0.33034804, -2.2250884, -1.0505592, -1.6176519
881, 483035703, 0.15352154, -0.35244533, 0.8474397, -0.3661477, 0.21894883, 1.1661059, -2.374761
882, 483052370, 0.16500479, -0.33715776, 0.8344754, -0.4034271, 0.39834043, 2.8798432, -1.336443
883, 483069037, 0.18074399, -0.32141048, 0.8176144, -0.44219738, -0.21462116, 3.7046008, -1.0293617
884, 483085704, 0.20091112, -0.30622813, 0.79651695, -0.4810659, -0.4144269, 4.140557, -1.5820484
885, 483102371, 0.2239722, -0.29094827, 0.77118874, -0.520056, -1.946232, 3.3000593, -0.56505966
886, 483119038, 0.24794354, -0.27414006, 0.7420606, -0.5592155, -3.203614, 3.9143927, 2.1087027
887, 483135705, 0.27175242, -0.25591716, 0.7095436, -0.5976702, -3.1986337, 4.8715496, 3.7504148
888, 483152372, 0.2936016, -0.23591796, 0.67483443, -0.63462126, -4.9044957, 5.6094346, 3.845932
889, 483169039, 0.3133245, -0.21472134, 0.6398891, -0.668034, -4.664933, 6.2576194, 2.5000324
890, 483185706, 0.33303744, -0.19650272, 0.6058419, -0.6952935, -3.554869, 7.4561086, 0.9395666
891, 483202373, 0.3502672, -0.1820543, 0.5744313, -0.71707916, -3.421113, 7.619039, 1.2053537
892, 483219040, 0.36046833, -0.16852373, 0.5494858, -0.73466474, -5.177025, 6.2010345, -2.5498753
893, 483235707, 0.36487308, -0.15696968, 0.53368443, -0.74660134, -3.666875, 4.893225, -5.3793526
894, 483252374, 0.36379933, -0.14844497, 0.5296548, -0.75172126, -3.041824, 2.2032816, -7.404924
895, 483269041, 0.35688752, -0.14436819, 0.53727686, -0.75041825, -2.8799276, 2.2420392, -7.939022
896, 483285708, 0.34477884, -0.14549375, 0.55346256, -0.74407184, -4.9891534, 3.8639517, -6.226632
897, 483302375, 0.32817885, -0.14835873, 0.5742565, -0.73520225, -7.1457367, 6.1766295, -3.401311
898, 483319042, 0.31181747, -0.14901777, 0.59209, -0.72800934, -1.9442561, 0.68902904, 6.4428883
899, 483335709, 0.29349625, -0.14210354, 0.604072, -0.72716457, -3.2232625, 6.032131, 14.550762
900, 483352376, 0.27062207, -0.13313363, 0.6195087, -0.7247435, 1.026117, 5.252526, -5.070948
901, 483369043, 0.25334296, -0.13372491, 0.63519806, -0.71726096, 3.7617695, 5.250639, -3.1128554
902, 483385710, 0.2437097, -0.1479916, 0.64818126, -0.70609504, -5.084135, 4.444146, -0.15497112
903, 483402377, 0.22819914, -0.15636797, 0.6624733, -0.6961379, -8.849711, 3.397258, 0.04981804
904, 483419044, 0.21046224, -0.15720141, 0.6762153, -0.68828124, -2.1692007, 4.250536, 3.1655931
905, 483435711, 0.20199569, -0.164204, 0.68635833, -0.6790815, 2.2995563, 4.3123426, 0.40218925
906, 483452378, 0.2019453, -0.1780643, 0.6937046, -0.66804934, -0.9329794, 3.6357179, -0.1370802
907, 483469045, 0.20137471, -0.18931402, 0.69951093, -0.6590125, -4.464559, 2.395819, 2.3162022
908, 483485712, 0.19637786, -0.19270253, 0.7050019, -0.6536654, -4.990108, 1.1638759, 2.4256115
909, 483502379, 0.18763992, -0.19003771, 0.7102341, -0.6513443, -0.66030884, 1.0603521, 1.2947483
910, 483519046, 0.18332945, -0.19090123, 0.71413654, -0.6480438, 3.081754, 1.7243526, 0.6179819
911, 483535713, 0.18606721, -0.19822012, 0.7160483, -0.64293635, 0.67752033, 1.2865252, 0.9771118
912, 483552380, 0.18893114, -0.2051954, 0.7171854, -0.6386311, -2.592929, 0.33702758, 0.8523054
913, 483569047, 0.19006689, -0.20897289, 0.71858823, -0.6354844, -1.0849422, -0.13178788, 0.54991055
914, 483585714, 0.19189323, -0.21234083, 0.7200387, -0.6321686, 0.5497893, -0.5764189, -0.08128071
915, 483602381, 0.19398081, -0.21668026, 0.7215546, -0.62831897, 0.30050042, -1.063163, -0.8629112
916, 483619048, 0.19577627, -0.22127064, 0.72328514, -0.6241586, 0.42711756, -1.5155928, -0.63450336
917, 483635715, 0.19697334, -0.22574526, 0.72542447, -0.61968106, 0.7001861, -1.534049, -0.8773308
918, 483652382, 0.19738223, -0.23027666, 0.7281651, -0.6146487, 0.9327285, -1.7109133, -0.9013901
919, 483669049, 0.19623575, -0.23454434, 0.731832, -0.60902137, 0.9979116, -1.65955, -1.4503489
920, 483685716, 0.19366291, -0.2384643, 0.7365206, -0.602637, 1.6305537, -1.4968194, -1.4136992
921, 483702383, 0.19010882, -0.24229454, 0.74212664, -0.59531873, 1.8399173, -1.2275873, -0.7761431
922, 483719050, 0.1858996, -0.24622402, 0.7483258, -0.5872206, 1.7731079, -1.0788711, 0.31431866
923, 483735717, 0.18088336, -0.25033182, 0.7551943, -0.57818806, 1.9674659, -0.63980347, 0.645134
924, 483752384, 0.17649755, -0.25559172, 0.7623349, -0.5677778, 3.0281007, -0.6087223, 0.99251175
925, 483769051, 0.17208157, -0.26165634, 0.7699764, -0.55593604, 2.479081, -0.8910182, 0.6724291
926, 483785718, 0.16603546, -0.26697206, 0.7783932, -0.5433846, 1.6947336, -1.720993, 0.871871
927, 483802385, 0.15776682, -0.27129054, 0.78766584, -0.53018695, 1.9912195, -2.0288696, 0.5058069
928, 483819052, 0.14848307, -0.27605617, 0.797264, -0.51586866, 2.6077158, -2.469676, 0.9596071
929, 483835719, 0.13929017, -0.28246215, 0.80707085, -0.49945447, 4.0735927, -3.0878224, 0.71092224
930, 483852386, 0.13037235, -0.29114455, 0.81683105, -0.48065528, 5.283424, -3.9019148, 0.32134247
931, 483869053, 0.12288654, -0.30293003, 0.8261772, -0.45887718, 8.4976635, -6.007724, -0.2769394
932, 483885720, 0.11839728, -0.3182593, 0.83484024, -0.4332895, 10.064105, -8.538479, 0.75431824
933, 483902387, 0.11578947, -0.33674332, 0.84262633, -0.4039581, 14.805614, -7.8208723, 1.8940277
934, 483919054, 0.12314291, -0.360161, 0.84800005, -0.36880946, 18.366339, -10.561813, -0.28165913
935, 483935721, 0.1391809, -0.3850701, 0.8510107, -0.32883888, 10.442492, -10.42207, -1.0477886
936, 483952388, 0.15428561, -0.40617007, 0.85326195, -0.2883926, 0.8691013, -12.689985, 4.884718
937, 483969055, 0.16128075, -0.4170877, 0.85607296, -0.25917158, -0.13746896, -13.624346, 7.0936337
938, 483985722, 0.1579511, -0.41830146, 0.8590856, -0.24910238, -0.822681, -10.419011, 1.0767956
939, 484002389, 0.14440507, -0.41622445, 0.8630854, -0.2469668, -7.7557263, -3.7050433, 5.871128
940, 484019056, 0.1370476, -0.4139802, 0.86551577, -0.24642542, 3.384546, 0.14323527, -1.9812703
941, 484035723, 0.14141792, -0.41063476, 0.86550254, -0.24957989, 6.32158, -1.4949018, -2.9326453
942, 484052390, 0.15312167, -0.4071107, 0.8623217, -0.25926998, -0.80457604, -2.3557272, -2.2634163
943, 484069057, 0.16356158, -0.40205693, 0.85732114, -0.2767724, -3.1701086, -1.7746564, -2.8357992
944, 484085724, 0.16825244, -0.3933888, 0.85104007, -0.30442065, -3.9668078, -1.9361765, -3.2085338
945, 484102391, 0.17074707, -0.3810274, 0.84283566, -0.33955303, -3.5178022, -0.11264248, -2.935844
946, 484119058, 0.17661773, -0.3657346, 0.831968, -0.37799218, -1.4558841, 1.7217907, -3.1300068
947, 484135725, 0.18662614, -0.34840715, 0.81802386, -0.4178813, -0.7172789, 2.6002407, -1.2121906
948, 484152392, 0.20168048, -0.33027107, 0.80030084, -0.45800555, -0.53157026, 3.455709, -1.4073057
949, 484169059, 0.22207087, -0.31305113, 0.778232, -0.49703446, -1.2462898, 4.125449, -2.407401
950, 484185726, 0.24524313, -0.2968555, 0.75246966, -0.5343469, -2.512771, 3.3048806, -1.0220404
951, 484202393, 0.26953298, -0.28044808, 0.7234057, -0.57042944, -2.9157186, 3.1338859, 2.437375
952, 484219060, 0.2929825, -0.26331082, 0.69191736, -0.6050485, -4.2275, 3.9812562, 3.6425953
953, 484235727, 0.3141717, -0.24521273, 0.6590812, -0.6377958, -4.134159, 4.325242, 3.4653692
954, 484252394, 0.3336654, -0.22716524, 0.62597793, -0.66724783, -3.4387088, 5.0295835, 2.4117336
955, 484269061, 0.35228255, -0.2115147, 0.59349585, -0.69204456, -2.206643, 5.744156, 1.9253664
956, 484285728, 0.368564, -0.19967853, 0.5629386, -0.7123157, -2.2408276, 6.2188864, 0.67256165
957, 484302395, 0.38001382, -0.18983203, 0.5363381, -0.72931445, -3.51103, 5.7179513, -1.9395227
958, 484319062, 0.38660383, -0.18208529, 0.5167115, -0.7418869, -1.2610377, 3.7643275, -4.1714187
959, 484335729, 0.38751942, -0.17609972, 0.5079499, -0.7488718, -0.9185833, 1.4645607, -6.8404484
960, 484352396, 0.3824141, -0.17266314, 0.5113198, -0.7500023, -0.9708297, 0.6881512, -7.5507746
961, 484369063, 0.37096453, -0.17027684, 0.5254574, -0.74651873, -3.9608078, 1.6991704, -5.994508
962, 484385730, 0.3533083, -0.16665037, 0.5470974, -0.7403308, -5.4608507, 4.5451946, -3.3062496
963, 484402397, 0.33336407, -0.1629373, 0.5691459, -0.7337556, -3.549761, 1.8828555, 2.851059
964, 484419064, 0.31336075, -0.1534528, 0.58351916, -0.7333263, -2.9875994, 5.748109, 18.074745
965, 484435731, 0.28798127, -0.1411917, 0.60167223, -0.73152375, 2.4310875, 8.532659, -2.5270023
966, 484452398, 0.2732802, -0.14655568, 0.61806947, -0.72238094, 5.6951957, 8.561117, -3.3475032
967, 484469065, 0.26840112, -0.16502474, 0.6299335, -0.7098706, -4.0577836, 6.0035696, -0.9826746
968, 484485732, 0.26005596, -0.18111688, 0.6422793, -0.69788915, -12.169193, 3.4379215, -0.78827286
969, 484502399, 0.24085651, -0.1792889, 0.65641874, -0.6920712, -9.661919, 3.6260564, 1.7616215
970, 484519066, 0.22567612, -0.17701057, 0.6682497, -0.6864287, 2.700073, 4.1023026, 1.4441528
971, 484535733, 0.22268993, -0.18762764, 0.67576486, -0.6771643, 3.3887806, 3.798321, 0.41207314
972, 484552400, 0.22477242, -0.20226844, 0.6812749, -0.66665876, -1.6545947, 1.7679781, 0.97003555
973, 484569067, 0.22325858, -0.21094075, 0.6865728, -0.65900093, -4.890948, -0.9698918, 2.2669516
974, 484585734, 0.21606731, -0.21101516, 0.69264156, -0.6550111, -3.7043526, -1.2974719, 0.80609703
975, 484602401, 0.20754707, -0.208169, 0.6985269, -0.6524221, -0.5253806, 0.009179998, 0.43514824
976, 484619068, 0.20394386, -0.20921208, 0.70302194, -0.64838415, 1.9870988, 1.3382568, 0.21547318
977, 484635735, 0.20430586, -0.21451177, 0.7059592, -0.6433274, 0.29184043, 1.3686411, 0.19222355
978, 484652402, 0.20443551, -0.2194847, 0.70876634, -0.63850397, -0.014465088, 0.37672827, 0.06705189
979, 484669069, 0.20294881, -0.22228847, 0.71204877, -0.6343428, 0.47608823, -0.47515038, -0.10823345
980, 484685736, 0.20100394, -0.2248744, 0.7156981, -0.62992847, 0.7638243, -0.6954333, -0.55327225
981, 484702403, 0.19929716, -0.22829118, 0.7194445, -0.62495446, 0.8346173, -0.8944197, -0.6628332
982, 484719070, 0.1977614, -0.23211604, 0.72337234, -0.61947536, 0.6566923, -0.95744705, -0.7143116
983, 484735737, 0.19579028, -0.23562875, 0.72761595, -0.6137792, 0.53323555, -0.85749483, -0.41589355
984, 484752404, 0.19366224, -0.23933074, 0.7321283, -0.60762525, 1.0593642, -0.6961767, -0.542264
985, 484769071, 0.19151507, -0.24363416, 0.7367369, -0.600989, 0.77855116, -0.587616, -0.43730545
986, 484785738, 0.1891308, -0.24833415, 0.7416537, -0.5937292, 0.68136334, -0.42058647, 0.15097046
987, 484802405, 0.18663225, -0.25343683, 0.74693066, -0.58569396, 1.7100153, -0.6611779, 0.51800823
988, 484819072, 0.18368095, -0.25876087, 0.75279295, -0.5767249, 2.0061378, -0.6825082, 0.34487057
989, 484835739, 0.17991222, -0.26405215, 0.75929683, -0.5669047, 2.3369734, -1.2472597, 0.73372746
990, 484852406, 0.17523141, -0.26928008, 0.7666213, -0.5559484, 2.5422108, -1.6732888, 0.30968952
991, 484869073, 0.16898607, -0.27425772, 0.7748219, -0.5439504, 2.3356311, -2.4230428, 0.05812645
992, 484885740, 0.1608501, -0.27883992, 0.78397304, -0.5308167, 2.5129778, -2.7334235, 0.09530544
993, 484902407, 0.15124504, -0.28370863, 0.793726, -0.5163698, 2.9009356, -2.7840822, 0.44977665
994, 484919074, 0.14141253, -0.29010794, 0.80377626, -0.49978846, 3.8652403, -3.3457413, 0.45085144
995, 484935741, 0.13194294, -0.2987723, 0.8137083, -0.48084262, 5.2511044, -4.192342, 0.3143854
996, 484952408, 0.12498306, -0.31023452, 0.8232027, -0.45877653, 7.383794, -8.337874, 0.7509403
997, 484969075, 0.115716174, -0.32296294, 0.8329664, -0.4341389, 8.486524, -7.171337, 1.6273327
998, 484985742, 0.10913514, -0.33918384, 0.8411655, -0.40680346, 16.905233, -8.4923, 2.762928
999, 485002409, 0.11716023, -0.36243594, 0.8467556, -0.37138054, 20.606432, -9.916224, -1.3107224
1000, 485019076, 0.13490327, -0.387104, 0.8498764, -0.33115914, 10.321472, -10.713892, -1.4510784
1001, 485035743, 0.15162213, -0.40599573, 0.85347116, -0.28943038, -0.21885048, -13.419998, 3.1270037
1002, 485052410, 0.15919337, -0.41326433, 0.8571227, -0.26308826, 2.5883949, -12.789007, 7.4178143
1003, 485069077, 0.1536125, -0.41221225, 0.86038166, -0.2573569, -1.0782405, -8.318872, -0.152524
1004, 485085744, 0.14006288, -0.41098434, 0.86343217, -0.25683433, -7.2185917, -4.342667, 4.646077
1005, 485102411, 0.13507032, -0.40881187, 0.86395144, -0.261193, 8.142775, -0.81443536, -6.062565
1006, 485119078, 0.14330566, -0.40539026, 0.86177415, -0.26920667, 6.151686, -3.491366, -1.8385849
1007, 485135745, 0.15624748, -0.40282413, 0.8560868, -0.28361848, -2.0503137, -3.369038, -1.6706371
1008, 485152412, 0.1642607, -0.3967996, 0.8489549, -0.30797565, -2.672406, -3.4089496, -1.2690182
1009, 485169079, 0.16828533, -0.38570467, 0.8399068, -0.34274352, -1.4088885, -2.6443062, -1.2181015
1010, 485185746, 0.17400485, -0.37039033, 0.82810867, -0.38311127, -0.7213415, 1.1641558, -1.3932819
1011, 485202413, 0.18781169, -0.3543104, 0.8130141, -0.422142, 1.0370321, 3.8925688, -1.9491382
1012, 485219080, 0.20698507, -0.338911, 0.7938419, -0.4605612, -0.2520694, 4.339541, -0.2955494
1013, 485235747, 0.23096955, -0.32441717, 0.7704356, -0.4978361, -0.825713, 3.5486205, -0.5496006
1014, 485252414, 0.25690454, -0.30921605, 0.74313956, -0.534915, -2.7425728, 2.0343776, 1.4852247
1015, 485269081, 0.28002408, -0.2905606, 0.7130471, -0.57334954, -4.2161694, 2.6477396, 3.6959877
1016, 485285748, 0.29978836, -0.26746756, 0.6819678, -0.6111568, -3.9327092, 4.3016567, 3.7482767
1017, 485302415, 0.3192019, -0.24291238, 0.6503654, -0.6450842, -2.8399796, 5.69668, 2.9135532
1018, 485319082, 0.33952314, -0.2210294, 0.61884147, -0.67298603, -2.9850938, 6.81773, 2.007165
1019, 485335749, 0.35671657, -0.20232795, 0.5889442, -0.6963953, -4.181882, 7.1609387, 0.315547
1020, 485352416, 0.36822787, -0.18532696, 0.5623366, -0.71682966, -5.0906634, 6.4739494, -2.4203758
1021, 485369083, 0.37570193, -0.16961238, 0.54139656, -0.73278517, -4.276154, 6.7868066, -3.6600485
1022, 485385750, 0.3805115, -0.15795168, 0.5277128, -0.7428232, -1.7988293, 5.459607, -5.479155
1023, 485402417, 0.3820518, -0.15359372, 0.5225342, -0.74659777, -2.185213, 2.6952238, -6.972596
1024, 485419084, 0.3775801, -0.15228626, 0.52737445, -0.7457367, -4.6256523, 1.867556, -6.1291075
1025, 485435751, 0.36736727, -0.15173239, 0.54088837, -0.74125785, -5.2930865, 3.4370673, -5.1082573
1026, 485452418, 0.3532566, -0.15336555, 0.5590002, -0.7343108, -6.507039, 5.385237, -3.5787888
1027, 485469085, 0.33509082, -0.15364684, 0.5791519, -0.7271141, -8.136146, 5.661247, -2.4093995
1028, 485485752, 0.31875667, -0.14779261, 0.5928606, -0.72461915, 1.0536133, 0.40675473, 12.259361
1029, 485502419, 0.29742602, -0.13808882, 0.60502744, -0.7255452, -3.6483314, 6.8932323, 7.5983276
1030, 485519086, 0.27979636, -0.13535014, 0.6194374, -0.72089976, 7.2021217, 9.592818, -5.601003
1031, 485535753, 0.2754994, -0.15324102, 0.6302999, -0.7094677, 7.5083046, 4.957787, -0.26063824
1032, 485552420, 0.27539617, -0.18191716, 0.64111334, -0.6928504, -9.140402, 2.4084227, 0.39047623
1033, 485569087, 0.26115313, -0.19086593, 0.65581906, -0.68211085, -12.233639, 0.013200843, 2.6631317
1034, 485585754, 0.240298, -0.18795568, 0.67062896, -0.67615914, -4.1589665, 2.444677, 0.016374588
1035, 485602421, 0.23070227, -0.19300531, 0.6809265, -0.66773456, 2.0213926, 3.7699277, -0.87666035
1036, 485619088, 0.22877266, -0.20469439, 0.68815744, -0.657425, -2.6891809, 2.847351, -0.036385536
1037, 485635755, 0.22775406, -0.21509933, 0.6937543, -0.648514, -2.802973, 2.0891209, 2.635025
1038, 485652422, 0.22577725, -0.22148561, 0.6989175, -0.6414733, -2.327369, 1.1846619, 1.9596643
1039, 485669089, 0.22167282, -0.22425848, 0.70381045, -0.6365727, -1.1812329, 1.2774677, 1.3107061
1040, 485685756, 0.21790852, -0.22629726, 0.7077639, -0.6327564, 0.36149856, 1.3202446, 1.0755768
1041, 485702423, 0.21635576, -0.22951719, 0.71031594, -0.62925994, -1.3506727, 0.6544873, 1.057148
1042, 485719090, 0.21687786, -0.2335679, 0.7116826, -0.62603736, -1.7428977, 0.21432173, 0.70005417
1043, 485735757, 0.21802326, -0.23736373, 0.7127277, -0.6230156, -0.9281491, 0.48679176, 0.34518433
1044, 485752424, 0.21899515, -0.23991293, 0.71402127, -0.62021077, 0.65644383, -0.15963075, 0.7010355
1045, 485769091, 0.21918905, -0.24208635, 0.7156837, -0.6173752, 1.1115319, -1.0045233, -0.5258179
1046, 485785758, 0.21885942, -0.24459204, 0.7178111, -0.6140258, 1.9247136, -1.1017998, -0.882679
1047, 485802425, 0.21892756, -0.24868676, 0.7203854, -0.6093236, 2.371342, -1.4705596, -1.4070024
1048, 485819092, 0.21779716, -0.25288135, 0.7240667, -0.6036122, 1.3462867, -2.7239635, -1.5535555
1049, 485835759, 0.21405831, -0.25600997, 0.7290709, -0.5975771, 1.256454, -3.004016, -1.8131852
1050, 485852426, 0.20869207, -0.25883466, 0.735193, -0.5907184, 1.4528567, -2.2940767, -1.3057785
1051, 485869093, 0.2029442, -0.26229927, 0.7421295, -0.5824614, 1.9096241, -1.4395456, -0.8053436
1052, 485885760, 0.19696772, -0.26651236, 0.7495407, -0.57303435, 1.5731021, -1.3270422, 0.113479614
1053, 485902427, 0.19031602, -0.27084103, 0.75753486, -0.56264627, 1.7571245, -0.7132728, 0.8736181
1054, 485919094, 0.18351594, -0.2754577, 0.7658562, -0.5512842, 2.487006, -0.06270505, 1.3113451
1055, 485935761, 0.17672569, -0.28052327, 0.77445614, -0.53879243, 2.282096, -0.16460332, 1.4130669
1056, 485952428, 0.16878417, -0.28498805, 0.7835523, -0.5256849, 2.1714306, -1.3934913, 1.2336769
1057, 485969095, 0.15885793, -0.2884711, 0.7933178, -0.5120549, 2.4956791, -2.1918674, 0.9660387
1058, 485985762, 0.14811076, -0.29236177, 0.80341244, -0.49711254, 3.4752111, -2.5448027, 1.1023016
1059, 486002429, 0.13849743, -0.2987612, 0.81347066, -0.47940636, 5.2849636, -3.9545472, 0.5734024
1060, 486019096, 0.1301537, -0.30764514, 0.8234261, -0.4586814, 7.152276, -6.200433, -0.62605095
1061, 486035763, 0.12371588, -0.31891173, 0.8331988, -0.43448138, 9.428001, -9.880918, -0.22568798
1062, 486052430, 0.115912855, -0.33219123, 0.84290284, -0.40710297, 13.087306, -8.2041855, 1.3437166
1063, 486069097, 0.11882804, -0.3515592, 0.850196, -0.3734402, 22.194414, -11.226564, 1.046257
1064, 486085764, 0.13620046, -0.37489185, 0.85436916, -0.3331119, 13.898942, -11.420804, -2.329238
1065, 486102431, 0.15401495, -0.3958643, 0.8576765, -0.2897699, 0.23724224, -14.001285, 1.5036945
1066, 486119098, 0.16335982, -0.40677544, 0.86193734, -0.25478643, -0.045453146, -16.167467, 7.489876
1067, 486135765, 0.15988614, -0.40754983, 0.86591417, -0.24194421, 0.57026404, -13.779377, 2.05867
1068, 486152432, 0.14183538, -0.4032752, 0.8707704, -0.24293159, -7.2695346, -4.350693, 5.120845
1069, 486169099, 0.12881589, -0.40205815, 0.87314, -0.2436945, 1.251004, -0.19662681, 0.0222044
1070, 486185766, 0.12902687, -0.40011138, 0.8729497, -0.24743985, 7.693863, -0.33345383, -4.6302977
1071, 486202433, 0.13955677, -0.39756897, 0.8695413, -0.25761476, 1.2522935, -3.0721388, -1.3573828
1072, 486219100, 0.15059616, -0.39407992, 0.8637279, -0.27568215, -2.1377456, -0.9154922, -2.5148172
1073, 486235767, 0.15830736, -0.388406, 0.85615516, -0.30179882, -3.3240378, -0.8474563, -2.013215
1074, 486252434, 0.16370702, -0.379614, 0.84651524, -0.33542532, -2.0785353, -0.1035169, -2.5112677
1075, 486269101, 0.1712502, -0.36712843, 0.834169, -0.374242, -0.62866056, 1.296989, -2.7020602
1076, 486285768, 0.18252398, -0.3519325, 0.81865925, -0.41548795, 0.28963602, 2.7887728, -1.5066252
1077, 486302435, 0.19817248, -0.33559492, 0.79923713, -0.45752418, -0.46838146, 4.064765, -1.1482897
1078, 486319102, 0.21786556, -0.31833136, 0.775777, -0.49937424, -0.9242997, 3.757064, -1.1014156
1079, 486335769, 0.23909873, -0.29868096, 0.7487564, -0.54128575, -2.2735403, 3.1312046, 0.29733276
1080, 486352436, 0.26138392, -0.27710038, 0.7184695, -0.58197975, -2.5401232, 4.203949, 3.8296356
1081, 486369103, 0.28364244, -0.25422645, 0.68593746, -0.62000865, -3.126494, 5.052472, 4.9270267
1082, 486385770, 0.30520952, -0.23173326, 0.6524253, -0.65382946, -4.66749, 5.4597883, 3.5503788
1083, 486402437, 0.32499275, -0.21143976, 0.61966413, -0.6824179, -3.1627107, 6.8525124, 1.5774574
1084, 486419104, 0.34367532, -0.1970532, 0.58820134, -0.70504, -2.4228277, 7.2983465, 0.38880157
1085, 486435771, 0.35817516, -0.1871783, 0.5605102, -0.7228472, -3.7418807, 6.080811, -1.8610849
1086, 486452438, 0.3670425, -0.17827687, 0.53949136, -0.7365129, -5.0923834, 4.7526827, -4.125878
1087, 486469105, 0.36973083, -0.16793431, 0.5282955, -0.74565804, -4.360874, 3.2493954, -5.1036425
1088, 486485772, 0.3668925, -0.15918285, 0.5272639, -0.7496988, -2.7819273, 3.5755067, -6.017048
1089, 486502439, 0.35975313, -0.15686749, 0.53455204, -0.7484845, -2.7920468, 3.507394, -6.368655
1090, 486519106, 0.3483954, -0.15787081, 0.54920065, -0.7430214, -5.719731, 3.522454, -5.3763676
1091, 486535773, 0.33247232, -0.15794465, 0.56884444, -0.7354837, -6.504874, 5.6844344, -3.3309364
1092, 486552440, 0.3173329, -0.15767917, 0.58600134, -0.728728, -0.20815717, 0.26855084, 6.407797
1093, 486569107, 0.29860276, -0.15273035, 0.5992116, -0.72695273, -3.7432103, 7.749272, 12.9638
1094, 486585774, 0.27946538, -0.14985146, 0.6148477, -0.7220877, 4.7400823, 7.667216, -4.011276
1095, 486602441, 0.2689242, -0.15931816, 0.6282233, -0.712487, 3.2684991, 6.06532, -2.630299
1096, 486619108, 0.2635935, -0.17810494, 0.63997364, -0.69945383, -5.6158185, 3.549139, -1.7619543
1097, 486635775, 0.25120538, -0.18905899, 0.65385634, -0.6882074, -10.701411, 2.7430084, 1.03823
1098, 486652442, 0.23181167, -0.188691, 0.66791224, -0.68158424, -4.470763, 4.095929, 3.6613684
1099, 486669109, 0.22077343, -0.1934832, 0.678404, -0.6734956, 2.819021, 5.1657095, 0.108431816
1100, 486685776, 0.22087622, -0.20768788, 0.6854806, -0.6619673, -0.48433784, 3.7478004, -0.26437664
1101, 486702443, 0.22359596, -0.22262487, 0.69067925, -0.6506996, -2.4820914, 2.0190136, 2.4364462
1102, 486719110, 0.22566563, -0.23439148, 0.6950282, -0.64115226, -2.8208964, 0.8501568, 1.7611942
1103, 486735777, 0.22314014, -0.23897763, 0.69979334, -0.6351317, -3.7544599, -0.26858258, 1.5957279
1104, 486752444, 0.21693096, -0.23863117, 0.70474297, -0.63193214, -0.2680857, 0.2801711, 1.3495407
1105, 486769111, 0.21372604, -0.24082634, 0.7085347, -0.627939, 1.6973958, 0.9410722, 0.47367287
1106, 486785778, 0.21535388, -0.24734488, 0.710824, -0.6222358, 0.060714502, 0.5975614, -0.27304554
1107, 486802445, 0.21937132, -0.25532654, 0.71214724, -0.6160648, -1.0181811, -0.3552567, 0.1011343
1108, 486819112, 0.22216928, -0.2610956, 0.71352875, -0.611025, -1.4602106, -0.6405688, 0.6441059
1109, 486835779, 0.2230044, -0.26457176, 0.71540093, -0.6070232, 0.053993244, -0.9502431, 0.34221268
1110, 486852446, 0.22407271, -0.2682931, 0.7173322, -0.60270184, 1.1826643, -0.79195386, -0.19919586
1111, 486869113, 0.22568367, -0.2731976, 0.71931654, -0.5975103, 1.1670505, -0.8118402, -0.73654556
1112, 486885780, 0.22680719, -0.2784738, 0.72169125, -0.5917578, 0.31627038, -1.105639, -0.7696409
1113, 486902447, 0.22654076, -0.28272113, 0.72482145, -0.585992, 0.4687308, -1.4698915, -0.9676752
1114, 486919114, 0.223488, -0.28523973, 0.72901815, -0.58071375, 0.5584885, -1.5160662, -1.7305994
1115, 486935781, 0.2191268, -0.2874429, 0.7341291, -0.5748212, 1.8017632, -0.9183727, -1.2440968
1116, 486952448, 0.21470165, -0.2908246, 0.739879, -0.56736946, 2.2077649, -0.41472533, -0.3481226
1117, 486969115, 0.21063831, -0.2950069, 0.7460587, -0.5585727, 1.9324825, -1.165845, 0.7639103
1118, 486985782, 0.20527971, -0.2985872, 0.75299555, -0.5492798, 2.070701, -1.3784169, 0.5554218
1119, 487002449, 0.19883093, -0.3018032, 0.7606231, -0.53929424, 2.548076, -1.3045845, 0.81317425
1120, 487019116, 0.19147663, -0.3049724, 0.7691058, -0.528024, 2.5929308, -1.5618688, 0.39174747
1121, 487035783, 0.18259694, -0.30756783, 0.77843916, -0.5158465, 2.110287, -2.580429, 0.7222433
1122, 487052450, 0.1720605, -0.30972052, 0.78847665, -0.50277, 2.5974045, -2.760286, 1.1956139
1123, 487069117, 0.1618729, -0.31340107, 0.7986539, -0.48757955, 4.0858474, -2.9590876, 1.1443434
1124, 487085784, 0.15306866, -0.31971252, 0.80864596, -0.46952137, 5.941485, -4.36518, 0.66426754
1125, 487102451, 0.14671148, -0.32824898, 0.8184255, -0.4482331, 8.3775215, -8.168316, 0.38510227
1126, 487119118, 0.13666768, -0.3374765, 0.8288848, -0.42471933, 8.712197, -6.798815, 1.2273979
1127, 487135785, 0.1291129, -0.35009617, 0.83815473, -0.39782396, 18.560549, -7.460355, 1.578372
1128, 487152452, 0.1350427, -0.36970824, 0.8445026, -0.36317983, 20.467339, -9.088044, -0.70306015
1129, 487169119, 0.1497751, -0.39133996, 0.8490315, -0.32182443, 8.324855, -12.14833, -2.0308623
1130, 487185786, 0.15843415, -0.4069235, 0.8545009, -0.28132728, 0.39579183, -17.047014, 2.7126904
1131, 487202453, 0.15763082, -0.4123957, 0.8607097, -0.25350696, 2.7487159, -15.207348, 5.7282085
1132, 487219120, 0.14862908, -0.41171896, 0.8652268, -0.24450807, 3.7273824, -11.261313, -1.628418
1133, 487235787, 0.1303644, -0.4071478, 0.8695614, -0.24719119, -5.2344346, -3.1018567, 6.060175
1134, 487252454, 0.11963804, -0.4074827, 0.87164474, -0.2447136, 1.264529, -1.2760688, -0.22965622
1135, 487269121, 0.12094998, -0.40648174, 0.8712091, -0.24727134, 7.69299, -2.3076506, -4.6047373
1136, 487285788, 0.12842917, -0.4044643, 0.86812097, -0.2574595, 1.1512493, -4.49915, -1.0881224
1137, 487302455, 0.13960728, -0.40159267, 0.8629165, -0.27315357, -2.8846796, -1.0430346, -1.797204
1138, 487319122, 0.14830965, -0.39602804, 0.85636795, -0.29631865, -3.9950626, -1.7681614, -1.6588364
1139, 487335789, 0.1534152, -0.38534576, 0.8483893, -0.32895663, -3.0979002, -1.4377587, -2.0324736
1140, 487352456, 0.16130072, -0.37050724, 0.83763826, -0.36752355, -0.28366688, 0.7074489, -2.2188816
1141, 487369123, 0.17456013, -0.35425785, 0.8231944, -0.4079041, -0.12736964, 3.431837, -1.0310526
1142, 487385790, 0.19323072, -0.33777103, 0.80456424, -0.44861287, -0.52498174, 4.181023, -0.58810043
1143, 487402457, 0.21800669, -0.32205552, 0.7812304, -0.48830026, -0.74896085, 4.195653, -1.0738087
1144, 487419124, 0.2454491, -0.30627334, 0.7533205, -0.5276971, -2.5646353, 3.230342, 0.6991186
1145, 487435791, 0.27109182, -0.28814873, 0.72161376, -0.56811786, -4.783954, 3.9926467, 4.3924065
1146, 487452458, 0.29217613, -0.26554102, 0.68794495, -0.6089808, -5.2093387, 4.6389475, 4.086074
1147, 487469125, 0.30968383, -0.24058646, 0.6542318, -0.6466834, -5.105655, 6.435682, 2.37535
1148, 487485792, 0.32668573, -0.21839988, 0.6214217, -0.67780364, -3.4635546, 7.5629516, 1.1654663
1149, 487502459, 0.34353292, -0.20113526, 0.59053445, -0.7019996, -4.2494955, 7.447328, 0.7623844
1150, 487519126, 0.35523567, -0.18513644, 0.56461805, -0.72162527, -5.5544724, 7.13998, -1.1354809
1151, 487535793, 0.36091784, -0.17115757, 0.54577327, -0.7366, -4.612455, 6.223655, -5.025576
1152, 487552460, 0.36205083, -0.16097042, 0.5361082, -0.7453862, -3.552526, 4.711276, -6.5657754
1153, 487569127, 0.35830557, -0.15437688, 0.537089, -0.7478805, -3.1804314, 3.670927, -7.5283084
1154, 487585794, 0.34966713, -0.15278009, 0.5470702, -0.74505717, -3.6776576, 4.113834, -6.707117
1155, 487602461, 0.33676824, -0.15428981, 0.56349057, -0.7384205, -5.7985744, 5.359078, -5.448285
1156, 487619128, 0.3206972, -0.15599746, 0.58310384, -0.7299403, -6.35266, 6.43646, -2.2247448
1157, 487635795, 0.30874404, -0.15411425, 0.59498066, -0.7258986, 4.103967, 0.08675214, 17.391441
1158, 487652462, 0.28920853, -0.1482325, 0.60682356, -0.72536576, -4.5798974, 4.322475, 4.512018
1159, 487669129, 0.27324444, -0.14852288, 0.62182206, -0.7187631, 2.7937791, 5.6517177, -5.63081
1160, 487685796, 0.2636272, -0.15816326, 0.63421065, -0.7094129, -0.25396258, 3.2851682, 0.95807934
1161, 487702463, 0.25158465, -0.16783738, 0.64764446, -0.6993547, -9.272455, 4.1536555, -2.051981
1162, 487719130, 0.23218608, -0.16781569, 0.66275454, -0.6918734, -4.8675857, 5.3000436, 1.3451624
1163, 487735797, 0.21543494, -0.1678898, 0.67504334, -0.68536264, 0.47230914, 5.4715786, 1.5314484
1164, 487752464, 0.21048202, -0.17805225, 0.6834952, -0.6758949, 1.9627714, 4.1009383, -0.22279072
1165, 487769131, 0.21143857, -0.19255546, 0.68967766, -0.665256, -1.2672503, 2.882009, 0.7358179
1166, 487785798, 0.21211194, -0.2042796, 0.6950741, -0.65586215, -3.0951755, 1.3742615, 2.0550156
1167, 487802465, 0.2103766, -0.21111673, 0.70016426, -0.6488036, -3.5554826, 0.164278, 1.6363144
1168, 487819132, 0.2057724, -0.21334347, 0.7050814, -0.6442105, -1.9956167, 0.3116118, 1.0562878
1169, 487835799, 0.20115471, -0.21457818, 0.7092927, -0.64062583, 0.26657933, 1.1112612, 1.0954418
1170, 487852466, 0.20017102, -0.21872115, 0.71210575, -0.63639814, 1.683086, 1.7007619, 0.8001337
1171, 487869133, 0.20450711, -0.22783357, 0.71327907, -0.630481, 0.8021679, 1.7890162, 0.18237877
1172, 487885800, 0.21186532, -0.23907804, 0.71333206, -0.62379247, -0.48746333, 0.43732166, 0.5930548
1173, 487902467, 0.21678768, -0.24705768, 0.71390456, -0.61831266, -1.9563371, -1.1493202, 0.6490326
1174, 487919134, 0.2184054, -0.25102225, 0.71554637, -0.61423516, -0.7609077, -1.7537085, -0.19063187
1175, 487935801, 0.21916054, -0.25400528, 0.7177631, -0.6101397, 0.900584, -1.3188683, -0.6898632
1176, 487952468, 0.22091335, -0.25866562, 0.71996397, -0.6049344, 1.7732776, -0.67632395, -0.87293434
1177, 487969135, 0.22301352, -0.264376, 0.7223667, -0.5987998, 1.1979177, -1.0464736, -0.9116688
1178, 487985802, 0.22348666, -0.26946762, 0.7255933, -0.5924184, 0.71442074, -2.0927265, -1.0593767
1179, 488002469, 0.22134937, -0.2727973, 0.73007065, -0.5861632, 0.62924016, -2.422107, -1.3470345
1180, 488019136, 0.21676701, -0.27509266, 0.7356901, -0.5797421, 1.1532406, -2.2407134, -1.0605593
1181, 488035803, 0.21163593, -0.2778888, 0.74210984, -0.57207155, 1.9861534, -1.7452868, -0.4985447
1182, 488052470, 0.20658627, -0.28145975, 0.74918705, -0.5628729, 2.6696386, -1.3233503, 0.21032333
1183, 488069137, 0.20095071, -0.2854418, 0.75689995, -0.55249316, 2.6863036, -1.196917, 0.40600967
1184, 488085804, 0.19370969, -0.28886902, 0.7654636, -0.54138815, 1.8525211, -1.4972587, 0.5602722
1185, 488102471, 0.18439585, -0.2911678, 0.77493745, -0.52980727, 1.9409584, -1.4852966, 1.1113777
1186, 488119138, 0.17376703, -0.29307693, 0.7850326, -0.5173387, 2.6239574, -1.555353, 1.5395851
1187, 488135805, 0.16298464, -0.2958971, 0.79530555, -0.50336325, 2.9749453, -1.7491332, 1.7498398
1188, 488152472, 0.15326592, -0.30083287, 0.8055066, -0.48700413, 4.225565, -3.1720905, 1.4701796
1189, 488169139, 0.14415292, -0.3080712, 0.81569546, -0.4679292, 5.554884, -4.884227, 0.19992065
1190, 488185806, 0.13725334, -0.317945, 0.82547987, -0.44571304, 8.365751, -9.050123, 0.0024166107
1191, 488202473, 0.12858744, -0.32939088, 0.83546156, -0.4206845, 9.36946, -7.7740774, 1.248435
1192, 488219140, 0.12393886, -0.34507793, 0.8439849, -0.39147732, 18.896898, -9.355413, 2.072402
1193, 488235807, 0.1336292, -0.36712432, 0.8494203, -0.3547576, 19.637005, -10.402826, -1.7134666
1194, 488252474, 0.1504157, -0.38994572, 0.85294473, -0.31274152, 6.9753103, -11.809688, -2.7720695
1195, 488269141, 0.16083613, -0.40547246, 0.8576849, -0.27222207, -1.5347412, -15.69275, 4.024331
1196, 488285808, 0.16076973, -0.41027063, 0.86273134, -0.24805307, 2.3491411, -14.656855, 5.963855
1197, 488302475, 0.15040496, -0.40798098, 0.86686134, -0.2438977, -1.0134023, -8.745386, 0.7578697
1198, 488319142, 0.13025643, -0.4046613, 0.8715546, -0.24429424, -6.489535, -3.103805, 6.326235
1199, 488335809, 0.12284706, -0.40404826, 0.8728031, -0.24468923, 7.6714296, -0.23747693, -4.852245
1200, 488352476, 0.12896211, -0.40198487, 0.8715093, -0.24950516, 4.6750793, -3.4272997, -1.4007978
1201, 488369143, 0.13851525, -0.39942098, 0.86738914, -0.2625207, -1.858379, -2.7635894, -2.1700072
1202, 488385810, 0.14652956, -0.394504, 0.8615349, -0.28400332, -2.8579516, -1.965982, -2.341506
1203, 488402477, 0.15127051, -0.38601366, 0.8538761, -0.31466022, -3.0632079, -1.3276488, -2.1424556
