sep=,
DeviceTag:,DEMO6_0,,,,,,,,,,,,,,,,,
FirmwareVersion:,1.9.1,,,,,,,,,,,,,,,,,
AppVersion:,2023.6.1,,,,,,,,,,,,,,,,,
SyncStatus:,Synced,,,,,,,,,,,,,,,,,
OutputRate:,60Hz,,,,,,,,,,,,,,,,,
FilterProfile:,General,,,,,,,,,,,,,,,,,
Measurement Mode:,Sensor fusion Mode - Complete (Quaternion),,,,,,,,,,,,,,,,,
StartTime:,2025-02-09 22:14:52.176 -0600,,,,,,,,,,,,,,,,,
 2025,,,,,,,,,,,,,,,,,,,

PacketCounter,SampleTimeFine,Quat_W,Quat_X,Quat_Y,Quat_Z,FreeAcc_X,FreeAcc_Y,FreeAcc_Z
1, 468352076, 0.7518793, 0.0756159, -0.64062136, 0.13627553, -0.032498337, 0.31905088, 0.041657448
2, 468368743, 0.75189465, 0.0751524, -0.6407557, 0.13581565, -0.016286941, 0.25957766, 0.06576538
3, 468385410, 0.7519465, 0.07471311, -0.64085627, 0.13529465, -0.026341002, 0.16420133, 0.09425259
4, 468402077, 0.7520576, 0.07429201, -0.64089805, 0.13470939, -0.0035440214, 0.10807019, 0.10034466
5, 468418744, 0.75220245, 0.07392767, -0.64088154, 0.13418049, 0.0015578853, 0.07205851, 0.098742485
6, 468435411, 0.75237143, 0.07354456, -0.6408268, 0.1337032, 0.006800605, -0.055700935, 0.07868481
7, 468452078, 0.7524729, 0.07325742, -0.64080137, 0.13341144, 0.014826508, -0.0102328705, 0.047966003
8, 468468745, 0.75255674, 0.07301241, -0.6407807, 0.13317144, 0.020763459, 0.07672194, 0.04142475
9, 468485412, 0.7526233, 0.07286844, -0.64075834, 0.13298163, -0.026631122, 0.13182034, 0.083758354
10, 468502079, 0.7526998, 0.07278997, -0.64070415, 0.13285275, -0.04457787, 0.11113774, 0.092876434
11, 468518746, 0.75278056, 0.072736464, -0.64064, 0.13273296, -0.054016825, 0.07484476, 0.07641506
12, 468535413, 0.7528644, 0.07272157, -0.6405589, 0.1326574, -0.03644647, 0.08056106, 0.06040573
13, 468552080, 0.7529558, 0.072743595, -0.64044636, 0.13267072, -0.030252032, 0.100823455, 0.037802696
14, 468568747, 0.75300056, 0.07283135, -0.64036787, 0.132747, -0.08302523, 0.106869034, -0.0092868805
15, 468585414, 0.753006, 0.07295929, -0.6403232, 0.13286126, -0.040819723, 0.12598878, 0.016472816
16, 468602081, 0.7530235, 0.073109135, -0.6402671, 0.13295034, -0.051475927, 0.10850811, 0.036826134
17, 468618748, 0.7530287, 0.073259294, -0.64022577, 0.13303766, -0.07216831, 0.12734717, 0.07225418
18, 468635415, 0.7530468, 0.073440075, -0.64015436, 0.13317862, -0.055568896, 0.18447246, 0.11906624
19, 468652082, 0.7530929, 0.07356086, -0.64006287, 0.13329066, -0.053326614, 0.200606, 0.1722107
20, 468668749, 0.753109, 0.07370124, -0.6400105, 0.13337392, -0.0655036, 0.17774689, 0.095853806
21, 468685416, 0.7531301, 0.07379762, -0.6399628, 0.13343024, -0.03140804, 0.15173826, 0.061527252
22, 468702083, 0.7531164, 0.074010104, -0.639919, 0.13359961, -0.04651573, 0.093800284, 0.04755497
23, 468718750, 0.7530966, 0.07412651, -0.63992274, 0.13362935, -0.061339553, 0.085804, 0.009782791
24, 468735417, 0.75304306, 0.07422808, -0.63996774, 0.13365902, -0.062489305, 0.13699986, -0.00988102
25, 468752084, 0.7530001, 0.07430318, -0.63999707, 0.1337185, -0.12441536, 0.15054938, 0.0028448105
26, 468768751, 0.75295097, 0.07434749, -0.64004403, 0.13374561, -0.13232683, 0.17285402, 0.050837517
27, 468785418, 0.7529304, 0.07434581, -0.6400737, 0.13371992, -0.07983436, 0.20264378, 0.08752632
28, 468802085, 0.7529219, 0.074285775, -0.64010966, 0.13362984, -0.09349234, 0.19549806, 0.09964275
29, 468818752, 0.7529287, 0.0742183, -0.6401315, 0.13352455, -0.079140574, 0.18483403, 0.07839966
30, 468835419, 0.75295365, 0.07411953, -0.64014477, 0.13337488, -0.050947096, 0.19730684, 0.10090828
31, 468852086, 0.75300664, 0.07396054, -0.64013857, 0.1331935, -0.06453668, 0.15081096, 0.07508755
32, 468868753, 0.7530703, 0.073774494, -0.6401222, 0.13301548, -0.029235048, 0.100611284, 0.066381454
33, 468885420, 0.7531263, 0.07359296, -0.64011407, 0.13283774, -0.018221224, 0.09715968, 0.059939384
34, 468902087, 0.75319934, 0.07344772, -0.64008474, 0.13264531, -0.036400426, 0.12372112, 0.060585022
35, 468918754, 0.7532567, 0.07332614, -0.64006364, 0.132489, -0.02991408, 0.15412308, 0.047034264
36, 468935421, 0.7533242, 0.07320818, -0.64003223, 0.13232146, -0.04666146, 0.1455318, 0.029829025
37, 468952088, 0.7533761, 0.07308902, -0.6400178, 0.13216089, -0.030190341, 0.13974309, 0.03045845
38, 468968755, 0.75342226, 0.07299125, -0.64000654, 0.13200608, 0.038264077, 0.117781155, -0.0050239563
39, 468985422, 0.75345767, 0.072913006, -0.6400013, 0.13187264, 0.04575802, 0.10375963, 0.01192379
40, 469002089, 0.75345904, 0.07288475, -0.6400224, 0.1317792, 0.07119513, 0.09422077, 0.047644615
41, 469018756, 0.75344616, 0.07294375, -0.6400208, 0.13182771, 0.09397289, 0.108986594, 0.09426212
42, 469035423, 0.7534275, 0.07298948, -0.64002377, 0.13189498, 0.09010076, 0.1288289, 0.13752556
43, 469052090, 0.7534043, 0.073084876, -0.64001316, 0.13202506, 0.015934238, 0.13732262, 0.11923027
44, 469068757, 0.7533734, 0.07322489, -0.64000726, 0.13215281, -0.059976127, 0.14674403, 0.05807209
45, 469085424, 0.7533339, 0.073437154, -0.6399941, 0.13232405, -0.16745591, 0.1596776, 0.038726807
46, 469102091, 0.75331986, 0.07363252, -0.6399618, 0.13245094, -0.21525818, 0.110171214, 0.023617744
47, 469118758, 0.75333786, 0.073795386, -0.639914, 0.13248876, -0.22725725, 0.052605897, 0.0018787384
48, 469135425, 0.75335294, 0.07392172, -0.63988405, 0.13247737, -0.2513305, 0.015278172, 0.050207138
49, 469152092, 0.7533844, 0.074019745, -0.63985765, 0.1323711, -0.16009027, 0.0909444, 0.20443726
50, 469168759, 0.7534685, 0.07400577, -0.6398016, 0.1321709, -0.060204107, 0.24780703, 0.26538944
51, 469185426, 0.7535669, 0.073965624, -0.63971347, 0.13205932, -0.013403625, 0.35136393, 0.13232708
52, 469202093, 0.75359225, 0.07378856, -0.6397435, 0.13186862, -0.040555533, 0.295309, -0.026494026
53, 469218760, 0.7535415, 0.07357916, -0.6398751, 0.13163595, -0.06293186, 0.20358498, -0.09734821
54, 469235427, 0.75345427, 0.07334852, -0.64005625, 0.1313831, -0.029824227, 0.1415773, 0.032141685
55, 469252094, 0.7533438, 0.07307863, -0.6402613, 0.13116789, -0.08998274, 0.07107612, 0.13514519
56, 469268761, 0.7531984, 0.07281401, -0.6404939, 0.13101444, -0.11259912, 0.14164066, 0.09218788
57, 469285428, 0.7530564, 0.07252754, -0.64072543, 0.13085778, -0.14188781, 0.14201522, 0.062532425
58, 469302095, 0.7529399, 0.07228035, -0.6409185, 0.130719, -0.12555528, 0.14397788, -0.009366035
59, 469318762, 0.75286275, 0.072052635, -0.6410658, 0.13056676, -0.08232831, 0.15561107, 0.03504753
60, 469335429, 0.7528474, 0.07177995, -0.6411547, 0.13036844, -0.04557742, 0.18440825, 0.1720419
61, 469352096, 0.75288814, 0.07144861, -0.6411999, 0.13009278, -0.006880623, 0.24214818, 0.21083927
62, 469368763, 0.7529774, 0.07114127, -0.64119315, 0.12977871, 0.03686533, 0.3025457, 0.20615292
63, 469385430, 0.7531293, 0.07082595, -0.64112234, 0.12941794, 0.025469301, 0.28090975, 0.14084816
64, 469402097, 0.7533166, 0.070473485, -0.6410256, 0.12899886, 0.016276214, 0.17125791, 0.16655636
65, 469418764, 0.7535616, 0.07007938, -0.6408626, 0.1285927, 0.07915264, 0.049076013, 0.23763561
66, 469435431, 0.7538572, 0.06980964, -0.6405876, 0.12837672, 0.13297099, -0.0619151, 0.23129654
67, 469452098, 0.75413984, 0.069671914, -0.64028305, 0.12831016, 0.11673813, -0.08487145, 0.123568535
68, 469468765, 0.75439095, 0.069676645, -0.63996667, 0.12840934, 0.05492697, -0.07434661, 0.006661415
69, 469485432, 0.7546061, 0.069761425, -0.63965535, 0.12865119, 0.014787617, -0.07710951, -0.051150322
70, 469502099, 0.7547642, 0.07001753, -0.6393535, 0.1290839, 0.002451043, -0.0798633, -0.062275887
71, 469518766, 0.7548789, 0.07047632, -0.6390458, 0.12968747, 0.0012266391, -0.028396372, -0.0026750565
72, 469535433, 0.75498223, 0.07091257, -0.6387654, 0.13022684, -0.02478088, 0.08924291, 0.061662674
73, 469552100, 0.75504535, 0.07139319, -0.6385142, 0.13082892, -0.08790451, 0.17667979, 0.08315086
74, 469568767, 0.75509214, 0.07189509, -0.638268, 0.13148305, -0.12525487, 0.1777864, 0.03488922
75, 469585434, 0.7551124, 0.07235797, -0.63807184, 0.13206425, -0.12601973, 0.14346738, 0.011738777
76, 469602101, 0.7551095, 0.07279185, -0.63790977, 0.1326243, -0.13915828, 0.18812543, 0.035708427
77, 469618768, 0.7551115, 0.07310082, -0.6377822, 0.13305612, -0.16508578, 0.2348696, 0.116127014
78, 469635435, 0.75516754, 0.073356435, -0.6376069, 0.1334368, -0.19155507, 0.25485796, 0.1424141
79, 469652102, 0.7552599, 0.073485106, -0.63742745, 0.13369964, -0.1997942, 0.23509428, 0.05142021
80, 469668769, 0.7553512, 0.07354313, -0.6372809, 0.13385099, -0.21696, 0.22634426, -0.004655838
81, 469685436, 0.7554533, 0.07356265, -0.6371477, 0.13389772, -0.19109106, 0.20222312, 0.024687767
82, 469702103, 0.7555476, 0.073546946, -0.63704664, 0.1338554, -0.15398344, 0.19704595, 0.05623722
83, 469718770, 0.75564533, 0.07344495, -0.6369755, 0.13369894, -0.1298427, 0.18566607, 0.031900406
84, 469735437, 0.75572836, 0.07325804, -0.6369474, 0.13346474, -0.13123831, 0.1713242, -0.014381409
85, 469752104, 0.7557855, 0.07308524, -0.6369308, 0.13331522, -0.10213648, 0.17998432, 0.019229889
86, 469768771, 0.75584584, 0.07284978, -0.63693184, 0.13309768, -0.07869802, 0.15204497, 0.046732903
87, 469785438, 0.75589204, 0.0725785, -0.63696474, 0.13282536, -0.07866896, 0.11421294, 0.040091515
88, 469802105, 0.7559263, 0.0723277, -0.6370146, 0.13252741, -0.042358834, 0.08902616, 0.03588772
89, 469818772, 0.7559548, 0.07215131, -0.63704765, 0.13230208, -0.04505485, 0.04546762, 0.069452286
90, 469835439, 0.7559569, 0.07200135, -0.6370999, 0.13212001, -0.030870715, 0.020651704, 0.052829742
91, 469852106, 0.75592375, 0.071928136, -0.63716716, 0.13202529, -0.018885951, 0.03894132, 0.046974182
92, 469868773, 0.7558942, 0.07184166, -0.63723093, 0.13193412, -0.04784429, 0.026573678, 0.040200233
93, 469885440, 0.7558257, 0.07181008, -0.63732105, 0.13190816, -0.02969459, 0.05562405, 0.06520271
94, 469902107, 0.755764, 0.07185222, -0.6373753, 0.13197649, -0.04368203, 0.096070506, 0.072618484
95, 469918774, 0.755683, 0.07188293, -0.63746387, 0.13199592, -0.056046322, 0.1666583, 0.049696922
96, 469935441, 0.755623, 0.071900174, -0.6375426, 0.13194992, -0.073770896, 0.18854715, 0.057146072
97, 469952108, 0.75556165, 0.07190732, -0.6376328, 0.13186121, -0.03249655, 0.17081805, 0.064769745
98, 469968775, 0.75550175, 0.07186707, -0.6377305, 0.13175423, -0.03997708, 0.1671602, 0.05426979
99, 469985442, 0.75541246, 0.07179886, -0.63786256, 0.1316634, -0.041721374, 0.18209125, 0.037974358
100, 470002109, 0.7553343, 0.07164542, -0.6380125, 0.13146879, -0.084194645, 0.19674906, 0.029963493
101, 470018776, 0.75523585, 0.07153565, -0.63817656, 0.13129795, -0.09014143, 0.19912606, 0.056123734
102, 470035443, 0.75514203, 0.071346626, -0.6383667, 0.13101548, -0.046350427, 0.15870918, 0.07594013
103, 470052110, 0.75506467, 0.07110578, -0.6385495, 0.13070169, -0.048814334, 0.13060388, 0.0731678
104, 470068777, 0.75496334, 0.07093897, -0.63872576, 0.13051596, -0.015892666, 0.081814736, 0.041228294
105, 470085444, 0.75484556, 0.07076992, -0.6389189, 0.13034321, -0.0030598924, 0.074046716, 0.040161133
106, 470102111, 0.75471646, 0.07058853, -0.63913614, 0.13012357, -0.02887564, 0.085772984, 0.03288555
107, 470118778, 0.7545801, 0.07051312, -0.6393276, 0.13001467, -0.039934613, 0.08948928, 0.040880203
108, 470135445, 0.7544439, 0.07045059, -0.63950884, 0.12994826, -0.02245724, 0.06999185, 0.050566673
109, 470152112, 0.75428957, 0.07041898, -0.6397025, 0.12990801, -0.038079903, 0.06913792, 0.08138847
110, 470168779, 0.75412554, 0.07043269, -0.6398884, 0.12993719, -0.020885944, 0.041095596, 0.10640144
111, 470185446, 0.75395256, 0.070465825, -0.6400826, 0.12996641, -0.021036146, 0.058800504, 0.11121178
112, 470202113, 0.7537764, 0.0705957, -0.64025366, 0.1300758, -0.056169253, 0.09138445, 0.05988407
113, 470218780, 0.75358176, 0.070757195, -0.64043707, 0.13021307, -0.06970251, 0.122730404, 0.07152653
114, 470235447, 0.75341296, 0.070914835, -0.6405889, 0.13035697, -0.07965287, 0.12934661, 0.051646233
115, 470252114, 0.7532467, 0.071060374, -0.6407433, 0.13047948, -0.1105589, 0.110403724, 0.06740856
116, 470268781, 0.75311345, 0.07121849, -0.6408595, 0.13059156, -0.100315295, 0.10950727, 0.083483696
117, 470285448, 0.75298315, 0.07139543, -0.64096737, 0.1307169, -0.093774416, 0.13567744, 0.06305981
118, 470302115, 0.7528655, 0.07152885, -0.641067, 0.13083255, -0.10923927, 0.14858934, 0.097047806
119, 470318782, 0.75275534, 0.071621984, -0.64116406, 0.13094059, -0.0996756, 0.1703148, 0.11706829
120, 470335449, 0.7526814, 0.071679324, -0.64122576, 0.13103157, -0.07916471, 0.19689955, 0.0824213
121, 470352116, 0.752642, 0.071739085, -0.64125377, 0.13108861, -0.07116965, 0.17493705, 0.04799652
122, 470368783, 0.7526124, 0.07180039, -0.6412765, 0.13111426, -0.042281497, 0.17395823, 0.081902504
123, 470385450, 0.7525975, 0.07182078, -0.6412878, 0.1311323, -0.01462937, 0.18070273, 0.11989403
124, 470402117, 0.75259614, 0.071791366, -0.64129925, 0.13110057, -6.794794E-4, 0.20682558, 0.13058186
125, 470418784, 0.75263125, 0.07174757, -0.6412788, 0.13102232, -0.0070656915, 0.22353229, 0.111982346
126, 470435451, 0.7526789, 0.07174036, -0.6412275, 0.13100389, -0.008592285, 0.17935763, 0.082528114
127, 470452118, 0.7527045, 0.07173384, -0.64120394, 0.1309759, 0.0017447422, 0.14392407, 0.04599476
128, 470468785, 0.7527307, 0.071724996, -0.64117146, 0.13098866, -0.008932025, 0.0911255, 0.03825283
129, 470485452, 0.7527395, 0.071713135, -0.6411618, 0.13099211, 0.011089819, 0.07249905, 0.018045425
130, 470502119, 0.75273585, 0.07177392, -0.6411448, 0.13106318, -0.019737981, 0.059286643, 0.030758858
131, 470518786, 0.752728, 0.07189354, -0.6411181, 0.13117403, -0.0077420417, 0.09902501, 0.087693214
132, 470535453, 0.7527256, 0.0719496, -0.6410996, 0.13124704, -0.017218096, 0.17202188, 0.11305618
133, 470552120, 0.7527199, 0.072033525, -0.641071, 0.13137373, -0.023559159, 0.18114737, 0.046175957
134, 470568787, 0.7527324, 0.07210635, -0.6410316, 0.13145366, -0.04465655, 0.13254564, 0.035489082
135, 470585454, 0.75275695, 0.07218759, -0.6409773, 0.13153382, -0.051853217, 0.09859419, 0.096128464
136, 470602121, 0.752806, 0.072246805, -0.6408987, 0.13160272, -0.04638743, 0.12141202, 0.061698914
137, 470618788, 0.75286883, 0.07233425, -0.6407984, 0.13168389, -0.08141281, 0.08067387, 0.041358948
138, 470635455, 0.7529241, 0.07244738, -0.6407023, 0.13177375, -0.08585669, 0.061892636, 0.13376522
139, 470652122, 0.75300264, 0.0725524, -0.64057744, 0.13187414, -0.088908985, 0.088318184, 0.23152637
140, 470668789, 0.7531237, 0.07262078, -0.64040697, 0.1319727, -0.1518261, 0.08333167, 0.21607876
141, 470685456, 0.7532583, 0.07262485, -0.6402442, 0.13199286, -0.19816212, 0.1006053, 0.06435013
142, 470702123, 0.7534158, 0.072598115, -0.6400674, 0.13196507, -0.27576983, 0.1261274, -0.139534
143, 470718790, 0.75351584, 0.07250276, -0.6399764, 0.13188832, -0.27359462, 0.18554883, -0.20179176
144, 470735457, 0.75355965, 0.07229759, -0.63998026, 0.13173163, -0.23893401, 0.2066636, -0.17183876
145, 470752124, 0.75352854, 0.07208316, -0.64007974, 0.13154367, -0.18383941, 0.15467471, -0.07187748
146, 470768791, 0.7534536, 0.07183409, -0.64026445, 0.1312099, -0.13073765, 0.0735319, 0.082977295
147, 470785458, 0.75337106, 0.071624026, -0.64046115, 0.13083878, -0.10714943, 0.06641101, 0.18464375
148, 470802125, 0.75328434, 0.07142571, -0.6406627, 0.1304588, -0.07590098, 0.09798651, 0.13912106
149, 470818792, 0.7531668, 0.07122939, -0.64088774, 0.1301388, -0.09960721, 0.17452165, 0.07254696
150, 470835459, 0.7530069, 0.07101759, -0.6411371, 0.12995094, -0.09212489, 0.1959286, 0.014614105
151, 470852126, 0.7528266, 0.07077943, -0.64141876, 0.12973554, -0.075927354, 0.15247518, 0.017947197
152, 470868793, 0.75261694, 0.07061407, -0.6417336, 0.1294857, -0.100497685, 0.08256636, 0.094034195
153, 470885460, 0.7523854, 0.07046792, -0.6420857, 0.12916557, -0.08178473, 0.14335003, 0.1756134
154, 470902127, 0.75223553, 0.07029091, -0.64234924, 0.1288236, -0.104786, 0.21891613, 0.16554737
155, 470918794, 0.75211626, 0.070131615, -0.6425618, 0.12854716, -0.15801159, 0.26078507, 0.11026001
156, 470935461, 0.7520314, 0.0699577, -0.64273936, 0.12824892, -0.109009504, 0.26332435, 0.07384586
157, 470952128, 0.7519808, 0.06975986, -0.64288104, 0.12794259, -0.045483097, 0.23026355, 0.0921011
158, 470968795, 0.7519616, 0.069513634, -0.6429869, 0.12765719, 0.03829403, 0.17061493, 0.11148453
159, 470985462, 0.75198954, 0.06924803, -0.6430389, 0.12737447, 0.087703355, 0.1143846, 0.12299824
160, 471002129, 0.7520184, 0.06911254, -0.64305645, 0.12718959, 0.116054185, 0.09148296, 0.13113785
161, 471018796, 0.75206184, 0.06901566, -0.64304936, 0.12702116, 0.066125415, 0.11338673, 0.1437521
162, 471035463, 0.7520979, 0.06904089, -0.6430079, 0.12700446, 0.054533586, 0.14999641, 0.18717575
163, 471052130, 0.75217634, 0.06906405, -0.6429086, 0.12702955, 0.11946142, 0.19472264, 0.17935467
164, 471068797, 0.7523655, 0.06901964, -0.6426948, 0.12701544, 0.13955523, 0.17059721, -0.03866577
165, 471085464, 0.7525515, 0.06896852, -0.64249617, 0.12694718, 0.17037007, 0.12562059, -0.26507092
166, 471102131, 0.7526957, 0.069025874, -0.6423294, 0.12690333, 0.17981707, 0.07585829, -0.14413738
167, 471118798, 0.7527971, 0.06907947, -0.6422135, 0.12685838, 0.13720477, 0.11073128, 0.14233303
168, 471135465, 0.7530088, 0.068950884, -0.64198625, 0.12682389, 0.10777526, 0.16154444, 0.3069954
169, 471152132, 0.7533282, 0.068646975, -0.64165825, 0.12675147, -0.05152689, 0.2265762, 0.14005184
170, 471168799, 0.7531246, 0.06825945, -0.6419928, 0.12647589, -0.8313824, -0.017035598, -0.38497257
171, 471185466, 0.752418, 0.06795271, -0.6429484, 0.12599254, -1.615945, -0.18400648, -0.5997677
172, 471202133, 0.7519608, 0.067649126, -0.6436089, 0.12551185, -1.8299341, -0.34088603, 0.8441019
173, 471218800, 0.7525751, 0.067280695, -0.6429715, 0.12529378, -1.4522781, -0.39203244, 2.9008875
174, 471235467, 0.75475687, 0.06687309, -0.64045024, 0.12530124, -1.0104694, -0.539383, 2.5989256
175, 471252134, 0.7575726, 0.06671113, -0.63706136, 0.12567136, -0.5931828, -0.48411527, 0.8747854
176, 471268801, 0.7600407, 0.06674128, -0.6339774, 0.1263468, -0.41753203, -0.22376189, -0.42560577
177, 471285468, 0.7621392, 0.06711401, -0.6312572, 0.12712489, -0.08809182, 0.030179223, -0.90897465
178, 471302135, 0.764146, 0.06737608, -0.62869346, 0.12764277, -0.02789084, 0.28339654, -0.63422585
179, 471318802, 0.76620096, 0.06741457, -0.62610465, 0.12802875, 0.11812302, 0.4201365, -0.13385677
180, 471335469, 0.76834756, 0.0674753, -0.62337905, 0.12843199, 0.19141784, 0.41546908, -0.2081232
181, 471352136, 0.7702753, 0.067890905, -0.62087166, 0.1288117, 0.092647016, 0.32031006, -1.0601988
182, 471368803, 0.77187943, 0.06850955, -0.6187815, 0.12893823, 0.06751343, 0.091276936, -1.4215717
183, 471385470, 0.7732664, 0.068902, -0.61702734, 0.12882498, 0.13660307, -0.04830439, -0.9751997
184, 471402137, 0.774128, 0.06911227, -0.61592394, 0.1288186, 0.089642555, 0.0380566, -0.15607834
185, 471418804, 0.7746016, 0.069209225, -0.6152545, 0.12911794, 0.2035376, 0.27376246, 0.6088295
186, 471435471, 0.77519375, 0.06936701, -0.61436594, 0.12970951, 0.2821431, 0.13801181, 0.69245815
187, 471452138, 0.7760207, 0.069658145, -0.61313933, 0.13040948, 0.14751005, -0.24572858, 0.4638996
188, 471468805, 0.77696097, 0.06996582, -0.61177146, 0.13106878, 0.05605705, -0.46937189, 0.42348003
189, 471485472, 0.77786785, 0.070262924, -0.61044955, 0.13169345, -0.010540871, -0.3645188, 0.55441856
190, 471502139, 0.77866334, 0.07046819, -0.60930204, 0.1321965, -0.07951652, -0.10686512, 0.5999613
191, 471518806, 0.77941465, 0.07069081, -0.6082195, 0.13263386, -0.09391701, 0.005892975, 0.52678967
192, 471535473, 0.78026927, 0.07111511, -0.6069768, 0.13307399, -0.10349723, -0.16307153, 0.33473492
193, 471552140, 0.7812103, 0.07179405, -0.60557324, 0.13358167, -0.29808402, -0.40325648, 0.0103673935
194, 471568807, 0.78198373, 0.07254213, -0.6043792, 0.13405973, -0.54134613, -0.48483732, -0.42767715
195, 471585474, 0.7824516, 0.07329626, -0.6036103, 0.13438332, -0.6237585, -0.42909566, -0.64661026
196, 471602141, 0.78273267, 0.07388131, -0.60315543, 0.13446873, -0.59711, -0.20338333, -0.46511173
197, 471618808, 0.7829854, 0.07404767, -0.60282254, 0.13439818, -0.59436923, 0.017957479, -0.03820038
198, 471635475, 0.78301156, 0.07367398, -0.60282737, 0.13442898, -0.42035767, 0.21385954, 0.25778294
199, 471652142, 0.78301805, 0.07268524, -0.6028846, 0.1346726, -0.40908235, 0.3091505, 0.35785484
200, 471668809, 0.7829784, 0.0712461, -0.6030056, 0.1351301, -0.5210002, 0.30255753, 0.34618473
201, 471685476, 0.7829412, 0.06950768, -0.60316265, 0.13554876, -0.8080561, -0.009997623, 0.026839256
202, 471702143, 0.7827847, 0.0675196, -0.6035756, 0.13561872, -1.0277653, -0.72600234, -0.23207188
203, 471718810, 0.7822713, 0.06533711, -0.6045498, 0.13531135, -0.95131403, -0.9543659, -0.030665398
204, 471735477, 0.78148305, 0.062857516, -0.6059208, 0.13490796, -1.084062, -0.25914824, 0.32505798
205, 471752144, 0.7805506, 0.05965351, -0.6074773, 0.13476115, -1.1318513, 0.48161075, 0.7646475
206, 471768811, 0.7800161, 0.055606265, -0.6085724, 0.13464522, -0.6490043, 0.9530112, 0.92173576
207, 471785478, 0.78014714, 0.051157165, -0.6089174, 0.13408881, -0.24361259, 0.87313706, 0.1506567
208, 471802145, 0.7804723, 0.04685493, -0.6090535, 0.13314839, -0.13060398, 0.3693518, -0.7168102
209, 471818812, 0.7805763, 0.042720508, -0.60954064, 0.13169241, 0.0016986985, 0.022601295, -1.0114489
210, 471835479, 0.78014946, 0.038904503, -0.61075294, 0.1297735, 0.3906139, -0.21253195, -0.48480225
211, 471852146, 0.779735, 0.035964843, -0.6118106, 0.12812011, 0.7542154, -0.30145797, 0.43552685
212, 471868813, 0.77992815, 0.03454823, -0.61183745, 0.12720194, 1.0589896, -0.51179034, 0.8094549
213, 471885480, 0.7807715, 0.03411713, -0.61094886, 0.12641385, 0.71565986, -0.45541298, 0.08281422
214, 471902147, 0.781676, 0.03399512, -0.60993874, 0.12573263, 0.19359888, -0.10730323, -0.78755
215, 471918814, 0.78220695, 0.033501916, -0.60936475, 0.12534554, 0.27282795, 0.46920565, -0.8870392
216, 471935481, 0.7822766, 0.03287258, -0.60925627, 0.125605, 0.47972408, 0.8262107, -0.5433378
217, 471952148, 0.7820332, 0.03246595, -0.6094176, 0.12644082, 0.5776344, 0.8507479, -0.3505211
218, 471968815, 0.78185076, 0.03219248, -0.60948944, 0.12729111, 0.72176313, 0.69944793, -0.5173521
219, 471985482, 0.78189015, 0.031872272, -0.60934746, 0.1278072, 0.71694326, 0.5736418, -0.80266285
220, 472002149, 0.78203183, 0.03120092, -0.60917544, 0.1279259, 0.713737, 0.7475387, -1.1899014
221, 472018816, 0.78241223, 0.029622443, -0.60880935, 0.12771724, 0.64871573, 1.2312745, -1.4721565
222, 472035483, 0.78321254, 0.027265482, -0.6079001, 0.12766758, 0.16949032, 1.5243002, -1.6068258
223, 472052150, 0.7841766, 0.024058595, -0.60676414, 0.12779906, -0.1411149, 1.788759, -1.5021925
224, 472068817, 0.78508884, 0.019734487, -0.6057686, 0.12766176, -0.070588075, 2.11206, -1.244545
225, 472085484, 0.7861395, 0.014246095, -0.60466784, 0.12714346, 0.08933098, 2.0463665, -1.0876856
226, 472102151, 0.7869919, 0.00849995, -0.6038194, 0.12641473, -0.015012918, 1.204191, -0.9724417
227, 472118818, 0.7874843, 0.0031251907, -0.60345817, 0.12531592, 0.64795554, 0.22358306, -0.57778263
228, 472135485, 0.7880466, -0.0015312247, -0.6030595, 0.123721, 1.5400441, -0.60621905, 0.3441267
229, 472152152, 0.7886225, -0.0049936287, -0.60265017, 0.12194079, 2.0092003, -0.8047383, 1.6511106
230, 472168819, 0.789073, -0.006992176, -0.60230637, 0.120619096, 2.3046067, -0.25774053, 2.421218
231, 472185486, 0.7895566, -0.008247096, -0.6017874, 0.11996297, 2.0721796, 0.6829054, 1.9378328
232, 472202153, 0.7897367, -0.00950682, -0.60159487, 0.11965083, 1.7118652, 1.6073068, 1.0694971
233, 472218820, 0.78908986, -0.009772446, -0.6024358, 0.11966412, 0.5049645, 1.545401, 0.7671118
234, 472235487, 0.78704906, -0.00789086, -0.6052657, 0.11896263, 0.26078105, -0.071650736, 1.2736273
235, 472252154, 0.7830183, -0.002736371, -0.61092496, 0.11684517, -0.31214702, -1.6826413, 1.4158869
236, 472268821, 0.7790038, 0.005115986, -0.616504, 0.114266016, 0.035028502, -1.1087581, 0.78233624
237, 472285488, 0.77603126, 0.013280936, -0.6206099, 0.111578435, -0.7070095, 0.7275855, 0.15214348
238, 472302155, 0.7744054, 0.01946371, -0.6229639, 0.108812615, -1.5766966, 1.2505113, -0.45573616
239, 472318822, 0.7731271, 0.025102433, -0.6247538, 0.10646177, -2.6771636, 0.53068304, -0.09836197
240, 472335489, 0.77128494, 0.03149095, -0.6272222, 0.103571996, -1.7102957, -1.5713696, 1.1022253
241, 472352156, 0.7696488, 0.03875171, -0.6293862, 0.10009511, -0.6207675, -3.2914913, 1.1778793
242, 472368823, 0.7687473, 0.04672195, -0.6303348, 0.09762032, -0.44650558, -4.140963, 0.86006355
243, 472385490, 0.76791567, 0.055046126, -0.63083273, 0.096606344, -0.10005692, -3.3294024, 0.6494179
244, 472402157, 0.76652527, 0.06241019, -0.6317474, 0.0971915, 0.02552205, -1.3114907, 0.076304436
245, 472418824, 0.76439965, 0.068306625, -0.6333029, 0.09980875, 0.21185541, 0.831251, -0.12175655
246, 472435491, 0.7619286, 0.07291299, -0.6350345, 0.10434003, 0.16976525, 1.8583139, -0.1414423
247, 472452158, 0.759348, 0.076742634, -0.6367924, 0.10956152, -0.35879284, 1.3230354, -0.4733057
248, 472468825, 0.75669926, 0.07996552, -0.6387576, 0.11405179, -0.35260108, 0.20090719, -0.7785921
249, 472485492, 0.7541289, 0.083082974, -0.6408201, 0.11723319, 0.14834197, -0.17264257, -1.0579014
250, 472502159, 0.751876, 0.0866244, -0.64263105, 0.11921058, 0.43280244, -0.21536848, -1.2704525
251, 472518826, 0.74981445, 0.09073139, -0.6442943, 0.12015891, 0.27688205, -0.12398794, -1.4149914
252, 472535493, 0.74764764, 0.09508899, -0.6460792, 0.12070609, 0.3589873, 0.06953343, -1.1891155
253, 472552160, 0.7455226, 0.0995082, -0.64772713, 0.12145214, 0.6736117, 0.4010989, -0.7827425
254, 472568827, 0.7437515, 0.10352564, -0.6489605, 0.12236625, 0.8046824, 0.779805, -0.4625225
255, 472585494, 0.74223036, 0.106900595, -0.650017, 0.12309082, 0.79993904, 0.9604718, -0.487216
256, 472602161, 0.740999, 0.10977561, -0.6508593, 0.123527855, 0.68065864, 0.86385137, -0.44756603
257, 472618828, 0.74007076, 0.112588584, -0.6513955, 0.12373272, 0.6844861, 0.988936, -0.107611656
258, 472635495, 0.73978084, 0.115682386, -0.65114754, 0.1239184, 0.79632705, 1.2077061, 0.13539505
259, 472652162, 0.7402727, 0.1190877, -0.6499726, 0.12392448, 0.71168673, 0.89396787, -0.28247452
260, 472668829, 0.7409048, 0.12208944, -0.64886135, 0.12304605, 0.20150945, -0.05091927, -0.8371792
261, 472685496, 0.74092644, 0.124654666, -0.6486318, 0.12154423, 0.31355157, -0.20484605, -0.6306486
262, 472702163, 0.74089247, 0.12734672, -0.64828295, 0.12082079, 0.7687067, -0.030103171, 0.21316051
263, 472718830, 0.7413274, 0.12991148, -0.64724356, 0.1209937, 0.86840504, -0.35004097, 0.82062054
264, 472735497, 0.74157226, 0.13193963, -0.6465018, 0.121264145, 0.6010004, -0.7263583, 1.155674
265, 472752164, 0.74153864, 0.1339608, -0.6459997, 0.121927276, 0.7977866, -0.6710507, 1.6501675
266, 472768831, 0.7418331, 0.1362039, -0.64492875, 0.12331396, 1.0390607, -0.043845642, 2.1481571
267, 472785498, 0.7423511, 0.13803199, -0.64367515, 0.12470533, 0.81149954, 0.61561424, 1.7744102
268, 472802165, 0.7426264, 0.13878043, -0.64309514, 0.12522683, 1.2416449, 0.94560355, 1.1875534
269, 472818832, 0.7425144, 0.1389938, -0.6432058, 0.12508617, 1.6949917, 0.98310775, 0.9269657
270, 472835499, 0.74148405, 0.13813075, -0.6447331, 0.12428783, 0.58869064, 0.4321729, 1.3601351
271, 472852166, 0.7391475, 0.13581035, -0.6478223, 0.12469933, -0.06474545, 1.9412788, 3.170228
272, 472868833, 0.7358681, 0.13080308, -0.6523317, 0.12593289, -0.85980785, 1.3617135, 2.6794748
273, 472885500, 0.73386097, 0.123129904, -0.6559753, 0.12645414, -1.0164363, -0.5271574, 1.4400349
274, 472902167, 0.7325233, 0.11604898, -0.658632, 0.12709504, -0.33628955, -1.9826055, 0.3386364
275, 472918834, 0.7315307, 0.11036292, -0.6604178, 0.12860212, -0.37882182, -3.1626964, -0.8352394
276, 472935501, 0.7300885, 0.10562665, -0.66236794, 0.13072717, -1.2412093, -2.2815382, -1.4766483
277, 472952168, 0.7283651, 0.10089871, -0.6644966, 0.13324773, -2.0172951, -1.1963822, -1.4312057
278, 472968835, 0.7276167, 0.09665538, -0.6652172, 0.13683853, -2.1207802, -0.27183422, -0.27397346
279, 472985502, 0.72761095, 0.092729494, -0.66499865, 0.14059627, -2.5943627, 1.3605787, 0.95053864
280, 473002169, 0.72829205, 0.088098496, -0.66436046, 0.1430426, -2.5286562, 2.328331, 1.1740017
281, 473018836, 0.7295847, 0.08268084, -0.6636019, 0.14321181, -2.2195096, 2.1073418, 0.5646429
282, 473035503, 0.7304874, 0.077667266, -0.66358167, 0.14150026, -1.1999195, 1.0948597, 0.050807953
283, 473052170, 0.73082495, 0.07416998, -0.66413426, 0.13901985, -0.3450079, 0.09919963, -0.33681965
284, 473068837, 0.7310284, 0.07214488, -0.6648038, 0.13577715, -0.020989655, -1.0708432, -0.62026787
285, 473085504, 0.730982, 0.071296796, -0.6656688, 0.13218975, -0.24177307, -1.4845029, -0.63591003
286, 473102171, 0.73066026, 0.07114982, -0.66661006, 0.12927218, -0.3290397, -0.7862276, -0.4341116
287, 473118838, 0.73076653, 0.0704999, -0.6669535, 0.12724113, -0.26698086, 0.6062255, -0.2660551
288, 473135505, 0.73135805, 0.06860931, -0.66671777, 0.12610573, -0.30538753, 1.4064702, -0.42170048
289, 473152172, 0.7321407, 0.065490186, -0.6662805, 0.12553221, -0.14325884, 1.4257157, -0.73888683
290, 473168839, 0.7331269, 0.061806645, -0.66565347, 0.12496996, 0.31733608, 0.89881665, -0.99657345
291, 473185506, 0.7342976, 0.058547866, -0.66482973, 0.12404751, 0.5345187, 0.4162972, -1.4124708
292, 473202173, 0.7352906, 0.05618369, -0.6641615, 0.12283124, 0.5200393, 0.14477527, -1.8606057
293, 473218840, 0.73600245, 0.05444009, -0.66374266, 0.12161175, 0.61232847, 0.15462777, -1.9629636
294, 473235507, 0.7367506, 0.052596133, -0.66319644, 0.120870955, 0.63528866, 0.40321234, -1.5497093
295, 473252174, 0.73779374, 0.05007466, -0.66226184, 0.12070394, 0.70856065, 0.66500425, -0.86026573
296, 473268841, 0.7392978, 0.04627203, -0.66087747, 0.12060614, 0.72395355, 1.0281068, -0.4662323
297, 473285508, 0.7409293, 0.041694336, -0.659318, 0.120798305, 0.49653223, 1.3280088, -0.5653753
298, 473302175, 0.7418712, 0.0376137, -0.6583301, 0.12174092, 0.17321852, 1.0662655, -0.57340145
299, 473318842, 0.74209833, 0.034269158, -0.65801835, 0.12302229, -0.015433569, 0.45337653, -0.47834682
300, 473335509, 0.7421052, 0.031793755, -0.6578899, 0.12432602, -0.1315575, 0.14947072, 0.0043554306
301, 473352176, 0.74248755, 0.029432826, -0.65741426, 0.12513864, -0.026792498, 0.63734025, 0.86137295
302, 473368843, 0.7433852, 0.026837379, -0.6564474, 0.12546797, 0.4219008, 1.476342, 1.5472946
303, 473385510, 0.7443191, 0.024184551, -0.65540063, 0.1259417, 0.7297403, 2.324587, 1.9544516
304, 473402177, 0.74512154, 0.021062624, -0.6545042, 0.12641846, 1.1599191, 2.9297664, 1.9817915
305, 473418844, 0.7456408, 0.017455146, -0.653998, 0.12652604, 1.5250463, 2.797309, 1.4195881
306, 473435511, 0.74592483, 0.0144380145, -0.6537822, 0.12634768, 1.9077743, 2.0962355, 0.9161749
307, 473452178, 0.74569523, 0.01246427, -0.6542178, 0.12565584, 1.4486992, 1.0991449, 0.72601414
308, 473468845, 0.7441765, 0.012928959, -0.6564106, 0.12315153, 0.8667917, -1.3181748, 1.7137537
309, 473485512, 0.7405014, 0.017615046, -0.6611725, 0.119186014, 0.15256548, -2.6888852, 1.5769033
310, 473502179, 0.73743165, 0.0252202, -0.664876, 0.116212964, -0.9803354, -1.5956947, 0.9946451
311, 473518846, 0.7345701, 0.033155568, -0.6680496, 0.114124075, -2.6979039, 0.14767434, 0.549943
312, 473535513, 0.73203796, 0.03975887, -0.6709498, 0.11123394, -3.443271, 0.6240093, -0.16790962
313, 473552180, 0.73066807, 0.045182582, -0.67276883, 0.107106075, -3.21494, 0.0065029976, -0.90038204
314, 473568847, 0.730351, 0.049128026, -0.6737094, 0.10147307, -2.2820818, -0.74705136, 0.21027565
315, 473585514, 0.7312226, 0.05232945, -0.67337346, 0.09565711, -1.591608, -0.9370454, 2.236332
316, 473602181, 0.7320954, 0.055021856, -0.6728453, 0.09107713, -0.5842034, -1.9275956, 2.9171114
317, 473618848, 0.733061, 0.05788934, -0.67173666, 0.08970669, -0.1636477, -3.260404, 1.4035559
318, 473635515, 0.733617, 0.0623932, -0.6705787, 0.09079759, 0.62928957, -3.7640793, 0.0602808
319, 473652182, 0.7340592, 0.06739233, -0.6693981, 0.092350125, 0.66861665, -2.7838767, -0.7262974
320, 473668849, 0.7339618, 0.071713075, -0.6687707, 0.09439473, 0.36566272, -0.67681533, -0.9844723
321, 473685516, 0.73310727, 0.07460092, -0.668992, 0.09718697, -0.45970803, 1.0105644, -1.2281017
322, 473702183, 0.73172253, 0.076202184, -0.6699005, 0.10007873, -0.68514323, 0.8849562, -0.93243694
323, 473718850, 0.73055446, 0.077581964, -0.67063916, 0.102573216, -0.23163587, -0.14132304, -0.5565138
324, 473735517, 0.72964406, 0.079490796, -0.67111754, 0.104446, 0.20675798, -0.5189529, -0.8553257
325, 473752184, 0.7293692, 0.08214103, -0.6708802, 0.105831504, 0.23739982, -0.555497, -1.4429531
326, 473768851, 0.72984487, 0.08510618, -0.6698517, 0.10672134, 0.04456312, -0.6669709, -1.5387716
327, 473785518, 0.73095536, 0.08849423, -0.6680454, 0.1076819, -0.0350893, -0.54348826, -1.5106592
328, 473802185, 0.73257256, 0.09144116, -0.665721, 0.10862172, -0.26309308, -0.4823617, -1.6175365
329, 473818852, 0.7341684, 0.0935461, -0.66352785, 0.10947098, -0.010812663, -0.4657458, -1.6920109
330, 473835519, 0.7358312, 0.09552516, -0.66123444, 0.110469475, 0.2588289, -0.31116858, -1.3112669
331, 473852186, 0.7378034, 0.09806225, -0.6584743, 0.11157295, 0.46550193, -0.09595137, -0.4991989
332, 473868853, 0.7401592, 0.10151722, -0.65513223, 0.11254917, 0.8408924, -0.054091588, -0.10481167
333, 473885520, 0.7428326, 0.1057992, -0.6513259, 0.11308321, 1.1787086, -0.35364872, 0.007142067
334, 473902187, 0.74533397, 0.11051833, -0.6476841, 0.113027126, 1.2747695, -0.58955175, 0.09242344
335, 473918854, 0.7472563, 0.115144365, -0.64474076, 0.1125432, 1.2696725, -0.6591074, 0.107066154
336, 473935521, 0.7485543, 0.11924574, -0.64260787, 0.111843616, 1.4246107, -0.57366395, 0.2972374
337, 473952188, 0.7495622, 0.12289752, -0.6407973, 0.111528106, 1.6164331, -0.38351387, 1.0221157
338, 473968855, 0.7500495, 0.12683693, -0.6393405, 0.112200364, 1.9213433, 0.47744054, 1.4879618
339, 473985522, 0.75028247, 0.13066255, -0.63803184, 0.11369321, 2.0222027, 0.8103699, 1.357398
340, 474002189, 0.7502834, 0.13339667, -0.63724154, 0.11493711, 2.3784764, 0.4807765, 1.0871153
341, 474018856, 0.749677, 0.13528784, -0.6373403, 0.11612964, 1.1578056, -0.53707325, 0.843771
342, 474035523, 0.7481938, 0.13569656, -0.63845885, 0.119037345, 0.74224585, 0.80817723, 2.9837084
343, 474052190, 0.743311, 0.1331865, -0.64384836, 0.123354614, -2.13536, 1.690433, 1.9119787
344, 474068857, 0.74014974, 0.12681486, -0.64809626, 0.12678583, -1.0483321, 0.47492, 0.53950024
345, 474085524, 0.73734623, 0.12052372, -0.651981, 0.12931567, -0.16830929, -1.999883, 0.008213043
346, 474102191, 0.733628, 0.11567483, -0.65623415, 0.13331595, -0.6022744, -2.184151, 0.21264935
347, 474118858, 0.73102266, 0.11123939, -0.65875304, 0.1388636, -1.3600168, -1.1285496, 0.6080065
348, 474135525, 0.7293254, 0.106986254, -0.66003907, 0.14489228, -1.7730938, 0.21709433, 1.740941
349, 474152192, 0.729163, 0.10314067, -0.65954936, 0.15061584, -2.690711, 1.6502235, 2.3030577
350, 474168859, 0.72973955, 0.098764196, -0.6588135, 0.15394041, -3.2819185, 2.4985504, 2.0714645
351, 474185526, 0.7317273, 0.09367391, -0.6571954, 0.15460157, -2.8811579, 2.8919356, 0.9875593
352, 474202193, 0.7340741, 0.08801043, -0.6556673, 0.15328676, -2.4066765, 2.5842192, -0.07892132
353, 474218860, 0.7355933, 0.08270318, -0.65521806, 0.15086159, -1.3523089, 0.7692272, -0.91406155
354, 474235527, 0.73581654, 0.07878139, -0.65615475, 0.14776863, -0.38530794, -0.9997489, -2.0496101
355, 474252194, 0.73503864, 0.07720234, -0.6578746, 0.14479707, -0.29297096, -1.6361346, -2.697432
356, 474268861, 0.734098, 0.07633661, -0.6596713, 0.14182188, -0.5287959, -0.8374773, -2.3377376
357, 474285528, 0.7333922, 0.07464965, -0.66112185, 0.13960011, -0.5303893, 0.15815821, -1.5000534
358, 474302195, 0.7330681, 0.07189001, -0.66190505, 0.13903913, -0.71338767, 0.9819436, -0.7962961
359, 474318862, 0.73327786, 0.06766687, -0.6620056, 0.1395717, -0.8774283, 1.2753685, -0.53189373
360, 474335529, 0.73406374, 0.062836245, -0.66146386, 0.1402661, -0.7549003, 1.1017148, -0.6260576
361, 474352196, 0.7356246, 0.05833669, -0.6600874, 0.14051689, -0.3439279, 0.8994315, -1.1437359
362, 474368863, 0.73723227, 0.054744247, -0.6586588, 0.14024082, 0.06623494, 0.789814, -1.4761648
363, 474385530, 0.73871285, 0.051563222, -0.65743566, 0.13939086, 0.26772517, 0.70990163, -1.1993885
364, 474402197, 0.7404741, 0.04808938, -0.6559576, 0.13824669, 0.3042351, 0.69410855, -0.68022823
365, 474418864, 0.7428554, 0.043919396, -0.6537187, 0.13746163, 0.48000032, 0.9161653, -0.21230125
366, 474435531, 0.7458411, 0.038895864, -0.6506831, 0.137211, 0.7278547, 1.3363801, 0.18711853
367, 474452198, 0.7489593, 0.032667793, -0.6474482, 0.13715258, 0.7332548, 2.0431304, 0.25824928
368, 474468865, 0.7512466, 0.025715578, -0.6450861, 0.13725223, 0.39197734, 2.5954623, 0.15985107
369, 474485532, 0.75268257, 0.018523727, -0.6436379, 0.13734372, 0.37912446, 2.2234237, 0.18460083
370, 474502199, 0.75390935, 0.012037136, -0.64241976, 0.13703987, 0.9437794, 1.3634646, 0.73476696
371, 474518866, 0.7554589, 0.007022761, -0.64097005, 0.1356354, 2.0019393, 0.22321239, 1.4820995
372, 474535533, 0.75687313, 0.003948476, -0.6397739, 0.13350576, 2.565881, -0.33375174, 1.2179985
373, 474552200, 0.75766546, 0.0015692301, -0.6393262, 0.13118643, 2.270049, 0.9062442, 0.28623486
374, 474568867, 0.7575359, -0.0012039989, -0.6398831, 0.1292077, 2.2880163, 2.5970697, -1.0740957
375, 474585534, 0.75508994, -0.0036622547, -0.6430728, 0.12763327, 0.97396797, 2.4099715, -1.3585815
376, 474602201, 0.74949837, -0.0013703816, -0.6503489, 0.12370791, -0.9558482, -1.6734376, 1.5675468
377, 474618868, 0.7421746, 0.0067666247, -0.65963495, 0.118406065, -0.6243629, -2.4595375, 1.4870691
378, 474635535, 0.7375121, 0.017091062, -0.66548157, 0.11368908, -3.0790048, -0.8069155, -0.17786121
379, 474652202, 0.7357415, 0.025629386, -0.6682477, 0.10714346, -3.3170762, -2.251978, 1.1427574
380, 474668869, 0.7353041, 0.03355274, -0.66942406, 0.10040179, -3.1114504, -2.7806954, 1.7737827
381, 474685536, 0.735781, 0.042066995, -0.6692367, 0.094793685, -1.3586476, -2.3455632, 3.7891207
382, 474702203, 0.73710614, 0.048516814, -0.6678522, 0.09110971, -1.1717032, -1.0320052, 3.0495825
383, 474718870, 0.7373707, 0.05312036, -0.6671969, 0.091203466, -0.9114952, -0.31988505, 1.6895542
384, 474735537, 0.7368001, 0.056595773, -0.6671492, 0.094029695, 0.1353371, -1.6850734, 0.67141914
385, 474752204, 0.73589456, 0.060275845, -0.667184, 0.09848261, 0.30849794, -2.8446555, -0.48785114
386, 474768871, 0.73430306, 0.065020114, -0.6676935, 0.10374942, 0.20115004, -2.3849647, -1.3828964
387, 474785538, 0.7321401, 0.07045612, -0.66873324, 0.1086728, 0.22002392, -1.5199764, -1.74337
388, 474802205, 0.7299393, 0.0754834, -0.66999465, 0.11227331, -0.26482442, -0.5433333, -1.3782101
389, 474818872, 0.7278678, 0.08003342, -0.67126465, 0.11495145, -0.49670658, 0.24099614, -0.812891
390, 474835539, 0.7264631, 0.08476688, -0.6717687, 0.11747247, -0.18277012, 0.5587943, -0.63135624
391, 474852206, 0.7260183, 0.08992175, -0.6712562, 0.11930525, 0.049594842, 0.07635828, -0.94361115
392, 474868873, 0.72630554, 0.095421076, -0.67010736, 0.11974157, 0.2686742, -0.42169496, -1.206604
393, 474885540, 0.72723085, 0.10100127, -0.6683956, 0.1191147, 0.29707286, -0.51084447, -1.2263899
394, 474902207, 0.7284142, 0.10638436, -0.66646135, 0.11803126, 0.04472986, -0.25862774, -1.2980967
395, 474918874, 0.72972864, 0.11146277, -0.66433364, 0.117217734, 0.14139073, 0.101664536, -1.0897808
396, 474935541, 0.731506, 0.11625879, -0.6615554, 0.117193475, 0.46332762, 0.27982068, -0.94037056
397, 474952208, 0.7337094, 0.12062237, -0.6582619, 0.11755538, 0.6128636, -0.053338517, -0.8993826
398, 474968875, 0.73601097, 0.12462646, -0.6548484, 0.11805345, 0.8230851, -0.6058344, -1.0740366
399, 474985542, 0.7381955, 0.12861063, -0.6515082, 0.11862013, 0.8519581, -0.8297669, -1.3691797
400, 475002209, 0.7399589, 0.1328316, -0.64855164, 0.1191815, 0.8916012, -0.5305941, -1.4625578
401, 475018876, 0.7412021, 0.13709739, -0.6461533, 0.11965288, 0.9722076, -0.3517367, -0.8872738
402, 475035543, 0.74228203, 0.14129357, -0.6439869, 0.11975667, 1.0267059, -0.7134583, 0.33824062
403, 475052210, 0.7431095, 0.14557841, -0.64212346, 0.11949787, 1.4265518, -0.4716832, 1.7045431
404, 475068877, 0.74371463, 0.15035665, -0.64029264, 0.11964106, 1.7722901, 0.38256767, 2.3203325
405, 475085544, 0.74408126, 0.15496829, -0.6385745, 0.120654985, 2.1642313, 0.9054768, 1.5140772
406, 475102211, 0.7439991, 0.15847403, -0.6374677, 0.12244627, 2.5072227, 0.8912622, 0.93817234
407, 475118878, 0.74304, 0.16039318, -0.637718, 0.124451876, 2.8572435, 1.4838232, 0.9089222
408, 475135545, 0.740729, 0.16025004, -0.64012724, 0.12603414, 1.5858133, 0.53698987, 1.1650534
409, 475152212, 0.73701197, 0.15834883, -0.6441687, 0.12958704, -0.4204064, 2.532081, 4.376232
410, 475168879, 0.73037535, 0.15229756, -0.6523333, 0.1335137, -1.5051979, 2.185338, 3.346508
411, 475185546, 0.7268879, 0.14281726, -0.6576679, 0.13681118, -1.7627859, -1.2315084, 0.5654173
412, 475202213, 0.7238591, 0.13386095, -0.6621084, 0.14045976, -1.7599928, -2.7384984, 0.15828228
413, 475218880, 0.72177607, 0.12679616, -0.6645369, 0.14615044, -1.8456095, -1.7159189, 0.36182308
414, 475235547, 0.72051984, 0.121462815, -0.66568047, 0.15157247, -2.5486796, -1.1199454, 0.6977062
415, 475252214, 0.7194917, 0.11757624, -0.6664068, 0.15625802, -2.085597, 0.14387953, 1.6113119
416, 475268881, 0.71977043, 0.11450729, -0.665871, 0.15950435, -2.2493849, 0.44050157, 0.6674042
417, 475285548, 0.72053266, 0.11101441, -0.6653646, 0.16064182, -2.5549471, 1.9542211, 0.18580437
418, 475302215, 0.7218218, 0.10674223, -0.6647581, 0.1602594, -2.5025783, 2.7201982, 0.4393034
419, 475318882, 0.72297657, 0.10240509, -0.664539, 0.15878594, -1.6786914, 1.9205087, -0.23453903
420, 475335549, 0.72339785, 0.098580524, -0.6652332, 0.15636283, -1.0168916, 0.6435258, -1.4726286
421, 475352216, 0.7232086, 0.09549011, -0.66655886, 0.15348417, -0.5088002, 0.045794956, -1.8743901
422, 475368883, 0.7226077, 0.092630655, -0.6683214, 0.1503708, -0.39463, -0.42336768, -1.7867088
423, 475385550, 0.72169626, 0.08962108, -0.67029214, 0.14777698, -0.01907102, -0.5037808, -1.3849144
424, 475402217, 0.7208417, 0.08600623, -0.6719886, 0.14638457, 0.115802065, 0.07968661, -0.72709465
425, 475418884, 0.72064734, 0.08159603, -0.6727183, 0.14651541, 0.01809695, 0.78615904, -0.15502071
426, 475435551, 0.72116923, 0.07658382, -0.6725539, 0.14740491, -0.030998565, 1.0108085, -0.008607864
427, 475452218, 0.72274804, 0.07135213, -0.67125773, 0.14820427, -0.009247625, 0.71213526, -0.27717876
428, 475468885, 0.72510946, 0.06682387, -0.6691325, 0.14838934, -0.016647246, 0.3930192, -0.9701195
429, 475485552, 0.72772104, 0.06332682, -0.66678476, 0.14770499, 0.021394214, 0.4411688, -1.8625546
430, 475502219, 0.729929, 0.060598202, -0.6648949, 0.14646958, -0.15334934, 0.6960299, -2.1811519
431, 475518886, 0.7319386, 0.05728055, -0.6632959, 0.14501813, -0.40943328, 1.0973932, -1.5986738
432, 475535553, 0.73423713, 0.052538626, -0.661441, 0.1436609, -0.24211907, 1.4490602, -0.9153309
433, 475552220, 0.7368688, 0.04606259, -0.6592988, 0.14224944, -0.023835422, 1.7657554, -0.4003172
434, 475568887, 0.7392758, 0.038801327, -0.65731114, 0.14111975, 0.27716365, 1.9517672, 0.022424698
435, 475585554, 0.7414455, 0.032035973, -0.65535164, 0.140547, 0.44054404, 1.3480355, 0.6466074
436, 475602221, 0.74364954, 0.0262832, -0.6532123, 0.14005405, 0.87893295, 0.60510397, 2.018385
437, 475618888, 0.7461101, 0.021102678, -0.65082914, 0.13893464, 1.4151276, 0.6523375, 3.060708
438, 475635555, 0.74848646, 0.016526967, -0.6484799, 0.13775232, 1.6455734, 0.83010286, 2.482625
439, 475652222, 0.7504175, 0.0122083165, -0.64658815, 0.13658535, 1.9106942, 1.2741389, 1.7320976
440, 475668889, 0.75171804, 0.0079035275, -0.6453996, 0.13536626, 2.1052175, 1.8496559, 1.0815792
441, 475685556, 0.75217736, 0.00444822, -0.6451308, 0.1342488, 2.509224, 1.9613544, 0.23158073
442, 475702223, 0.75186616, 0.0017766953, -0.6459272, 0.13220972, 2.2722266, 1.7032408, -0.5611839
443, 475718890, 0.7503488, 0.002224695, -0.648352, 0.12891218, 1.1480873, 0.1022331, 0.59234524
444, 475735557, 0.74495083, 0.0086273365, -0.65536624, 0.124402836, -1.1109067, -2.9188936, 1.5350142
445, 475752224, 0.74012625, 0.018148806, -0.6613966, 0.1201884, -1.1741132, -2.1730518, 0.55604744
446, 475768891, 0.7370519, 0.028803118, -0.6651252, 0.116363905, -3.1348069, -1.4564544, -0.5758848
447, 475785558, 0.7354891, 0.038395293, -0.6672379, 0.11127605, -2.9137561, -2.2011242, -1.2995787
448, 475802225, 0.7357774, 0.04748715, -0.6671516, 0.106266975, -2.6620624, -1.4962013, -0.83764267
449, 475818892, 0.73629993, 0.056092422, -0.66666096, 0.1014214, -1.4794099, -0.9805054, 1.5576191
450, 475835559, 0.7366791, 0.0626347, -0.6661893, 0.09787663, -1.7754935, 0.031992864, 1.8514137
451, 475852226, 0.7364785, 0.06726347, -0.66611797, 0.09679368, -0.9438353, 0.2684152, 1.4788408
452, 475868893, 0.7361648, 0.07061778, -0.6659685, 0.09781328, 0.15991145, -1.3610601, 0.8530483
453, 475885560, 0.73582584, 0.074071705, -0.6656508, 0.0999473, 0.3839081, -2.6434188, 0.13177109
454, 475902227, 0.73501515, 0.07821159, -0.6657217, 0.102260366, 0.6563547, -2.402104, -0.8435211
455, 475918894, 0.73390114, 0.082706, -0.66604054, 0.10462247, 0.5903576, -1.7754674, -1.569459
456, 475935561, 0.73251826, 0.08689515, -0.66666603, 0.10691009, 0.18987784, -0.7065613, -1.2617016
457, 475952228, 0.7309013, 0.09073989, -0.66754, 0.10930195, 0.016462177, 0.41313374, -0.39344501
458, 475968895, 0.7295871, 0.09444507, -0.66802156, 0.11196886, -0.06870073, 0.9822913, -0.09384537
459, 475985562, 0.72912365, 0.097707294, -0.6676603, 0.11431837, -0.093306825, 0.5426049, -0.5754757
460, 476002229, 0.7297532, 0.100703776, -0.66627634, 0.11576676, 0.18312283, 0.17260855, -0.95494175
461, 476018896, 0.73163533, 0.10383573, -0.6635839, 0.11658202, 0.33229804, 0.12982225, -1.0383778
462, 476035563, 0.7343557, 0.10684803, -0.66008365, 0.11662759, 0.064458005, 0.112848565, -1.1810007
463, 476052230, 0.7374119, 0.109388985, -0.65629, 0.116396, 0.044888105, -0.040899128, -1.604559
464, 476068897, 0.74007654, 0.11164952, -0.65288633, 0.116480194, 0.3236244, -0.36831403, -2.0779085
465, 476085564, 0.74229246, 0.11439907, -0.6497797, 0.11708227, 0.5854084, -0.97777086, -1.6634741
466, 476102231, 0.7444369, 0.11804308, -0.64650345, 0.11798252, 0.66432697, -1.8117177, -1.0929098
467, 476118898, 0.74628717, 0.122780025, -0.64333147, 0.1187946, 0.75421315, -1.4107412, -0.61537075
468, 476135565, 0.7479925, 0.12802652, -0.64024866, 0.11918549, 0.8196502, -0.43930164, -0.27974892
469, 476152232, 0.749612, 0.13235244, -0.6375125, 0.11895216, 0.8044665, 0.19364202, 0.55842304
470, 476168899, 0.7503931, 0.13550213, -0.63599014, 0.118629575, 1.0593048, 0.48208258, 1.3625546
471, 476185566, 0.74998045, 0.1381353, -0.63592756, 0.11853732, 1.7695302, 0.6005157, 1.8457842
472, 476202233, 0.7491299, 0.14116877, -0.6361788, 0.11899276, 2.693669, 0.5689606, 2.2320843
473, 476218900, 0.7486105, 0.14436981, -0.63593525, 0.11972066, 2.847965, 0.14582399, 2.2382822
474, 476235567, 0.74826986, 0.1474068, -0.63545793, 0.12068096, 3.1224322, 0.42560732, 1.8404665
475, 476252234, 0.7475255, 0.15004729, -0.63543665, 0.12214233, 2.026469, 0.4170203, 1.0123444
476, 476268901, 0.7456996, 0.15059236, -0.6370495, 0.124213345, 1.2336351, 0.35930815, 1.8881006
477, 476285568, 0.7410198, 0.1482281, -0.64212686, 0.12883362, -2.7719162, 2.6305997, 2.3514204
478, 476302235, 0.7362755, 0.14099632, -0.6482457, 0.13342784, -1.5126753, 1.1959817, 1.435112
479, 476318902, 0.7333367, 0.13286051, -0.65255815, 0.13689506, -1.3584782, -2.1581156, -0.2559471
480, 476335569, 0.73068774, 0.12564427, -0.65602404, 0.14123912, -1.5438312, -2.81122, 0.39220428
481, 476352236, 0.72848696, 0.11985524, -0.6583158, 0.14686373, -2.1546168, -1.2889366, 0.31300926
482, 476368903, 0.7268384, 0.1148012, -0.6597414, 0.1525617, -1.988896, -0.1288532, 0.73843575
483, 476385570, 0.7266016, 0.11011368, -0.6595913, 0.15770668, -2.1758893, 0.4034125, 0.32009315
484, 476402237, 0.72676504, 0.106455795, -0.6591377, 0.16132042, -1.9261873, 0.6197299, 0.3163538
485, 476418904, 0.72749937, 0.10298647, -0.6585955, 0.16247323, -1.6761085, 1.3519814, 0.31128216
486, 476435571, 0.7285757, 0.09937857, -0.6581714, 0.16161275, -1.9558222, 2.1540344, -0.15216923
487, 476452238, 0.72891206, 0.09574523, -0.6588094, 0.1596789, -1.6983969, 1.8829737, -1.0845327
488, 476468905, 0.72863567, 0.09228642, -0.66018105, 0.15729432, -0.9472043, 1.0478182, -1.6677332
489, 476485572, 0.72806025, 0.089385286, -0.6617294, 0.15511215, -0.5358178, 0.39010975, -1.337719
490, 476502239, 0.7275181, 0.08669408, -0.66318977, 0.1529314, -0.3045127, -0.25038743, -1.0005188
491, 476518906, 0.7270448, 0.083349615, -0.664634, 0.15075558, 0.047569815, -0.040377337, -0.94431686
492, 476535573, 0.72696984, 0.07942921, -0.6654356, 0.1496948, -0.18234634, 0.6609834, -0.6962681
493, 476552240, 0.72767603, 0.07492634, -0.665255, 0.14938691, -0.12323879, 0.9468479, -0.47140503
494, 476568907, 0.7295879, 0.06992723, -0.66377294, 0.14907749, 0.085179895, 0.8708918, -0.42701435
495, 476585574, 0.7323036, 0.06517868, -0.6613526, 0.1486701, 0.14085607, 0.6253344, -0.93958855
496, 476602241, 0.73496825, 0.06130166, -0.6588706, 0.14819038, 0.14889897, 0.80868226, -1.734705
497, 476618908, 0.73735356, 0.058002718, -0.6566939, 0.14732824, 0.08637949, 0.93953335, -2.1121016
498, 476635575, 0.7393541, 0.05448831, -0.65506744, 0.14587751, 0.0031345456, 0.9452364, -1.7127972
499, 476652242, 0.74127513, 0.050006073, -0.6536459, 0.14409944, 0.18602939, 1.1866753, -1.1610918
500, 476668909, 0.74340147, 0.044170406, -0.65201217, 0.14244382, 0.3334858, 1.5424882, -0.9152279
501, 476685576, 0.74524003, 0.037131075, -0.65062076, 0.141203, 0.27095893, 2.0484369, -0.2730074
502, 476702243, 0.74673617, 0.029657405, -0.64938664, 0.14074698, 0.316877, 1.9669898, 1.0129108
503, 476718910, 0.74794996, 0.022868209, -0.64821947, 0.14094871, 0.80119604, 1.3261019, 2.218318
504, 476735577, 0.7491321, 0.017287895, -0.6470481, 0.14084764, 1.8628223, 0.40639606, 2.6367617
505, 476752244, 0.7502677, 0.013136391, -0.64603895, 0.13987988, 2.6013918, -0.037686046, 2.396778
506, 476768911, 0.7511392, 0.010359071, -0.64541787, 0.13829473, 3.0045326, 0.5778987, 1.4750042
507, 476785578, 0.75131595, 0.008398246, -0.64553666, 0.13690537, 2.657484, 1.7899301, 0.7563381
508, 476802245, 0.7499519, 0.00747158, -0.6472505, 0.13634524, 0.8697153, 1.9436814, -0.10381889
509, 476818912, 0.7466377, 0.0094712265, -0.65149736, 0.13416506, 0.20532481, -0.99583036, 1.714014
510, 476835579, 0.7408062, 0.016194362, -0.65876776, 0.1302913, -0.04454345, -2.1160712, 1.7887516
511, 476852246, 0.7362955, 0.02616683, -0.66404027, 0.1274433, -1.8943921, -0.35780993, 0.54803467
512, 476868913, 0.7338316, 0.034894697, -0.6669546, 0.124307506, -3.1285722, 0.86002403, -0.065979004
513, 476885580, 0.73242444, 0.041595034, -0.66895795, 0.11969307, -3.5755568, -0.6746865, -0.8895025
514, 476902247, 0.7318053, 0.04799097, -0.6701392, 0.11436068, -2.6706986, -2.0695791, -0.18714905
515, 476918914, 0.73227876, 0.054675497, -0.6700749, 0.10855903, -1.0727469, -1.8820155, 2.3051624
516, 476935581, 0.7339831, 0.059965078, -0.6684922, 0.103914194, -0.7729503, -1.2237439, 2.7374573
517, 476952248, 0.73492, 0.06414935, -0.6673103, 0.10237865, -0.29766563, -0.9777561, 1.3657522
518, 476968915, 0.7348546, 0.0685558, -0.6667524, 0.10362054, 0.33636108, -2.0237749, 0.33515644
519, 476985582, 0.7343651, 0.072950825, -0.66651624, 0.105589926, 0.12049494, -2.271015, -0.3252201
520, 477002249, 0.73341846, 0.077225834, -0.6667203, 0.10781717, -0.086862944, -1.1813279, -1.0952616
521, 477018916, 0.7321987, 0.08070281, -0.66721386, 0.11047511, -0.24440964, -0.36463222, -1.8573332
522, 477035583, 0.73079354, 0.08318251, -0.66796064, 0.1133883, -0.38246486, -0.1585525, -1.878325
523, 477052250, 0.7288917, 0.08534096, -0.6692608, 0.116322115, -0.41143638, -0.21157067, -1.1137676
524, 477068917, 0.72756267, 0.08757216, -0.67001694, 0.11860818, 0.04743392, -0.30000904, -0.27490616
525, 477085584, 0.72745335, 0.09021112, -0.6695091, 0.12015885, 0.5053914, -0.49651968, -0.3937111
526, 477102251, 0.72817, 0.09363909, -0.6680822, 0.121134385, 0.55533624, -0.6120786, -1.0227194
527, 477118918, 0.7294624, 0.097602956, -0.66603446, 0.121505044, 0.41137335, -0.34823462, -1.2664146
528, 477135585, 0.73113245, 0.10166791, -0.66361153, 0.12139088, 0.16020961, -0.005615819, -1.3343096
529, 477152252, 0.7331422, 0.10534525, -0.66089594, 0.12094875, 0.09896081, 0.10796324, -1.3651571
530, 477168919, 0.7354616, 0.10857202, -0.6578372, 0.120687075, 0.42297325, 0.20343809, -1.3066082
531, 477185586, 0.73792624, 0.112008065, -0.6544899, 0.12070155, 0.7523719, 0.11104883, -1.0691729
532, 477202253, 0.7403803, 0.116215065, -0.65094745, 0.12085317, 0.83264434, -0.2993049, -0.7133579
533, 477218920, 0.7429374, 0.12105261, -0.64718443, 0.120621264, 0.8715481, -1.0299647, -0.55469227
534, 477235587, 0.74553025, 0.1261802, -0.64336574, 0.119794235, 1.038835, -1.5050948, 0.035704613
535, 477252254, 0.7479503, 0.1312363, -0.6396914, 0.11895114, 1.4656826, -1.3886422, 0.698802
536, 477268921, 0.74937916, 0.13582706, -0.63712406, 0.11858195, 1.6225535, -0.48329172, 0.6842327
537, 477285588, 0.7496257, 0.14003277, -0.63578445, 0.1193209, 1.9108158, 0.5441952, 0.779891
538, 477302255, 0.7491142, 0.14363414, -0.6353124, 0.12075746, 2.2854795, 1.1507185, 0.8887291
539, 477318922, 0.7481645, 0.14658305, -0.6354935, 0.12214117, 2.416496, 1.2242864, 1.427166
540, 477335589, 0.74688685, 0.14946723, -0.6360695, 0.123460636, 2.6342115, 1.3080559, 1.2904959
541, 477352256, 0.744729, 0.15063465, -0.6381956, 0.12410265, 0.27390486, -0.54846233, 0.8583288
542, 477368923, 0.7408153, 0.14924988, -0.64250344, 0.126939, -1.7072908, 1.649342, 3.3580446
543, 477385590, 0.7337872, 0.14351901, -0.6510512, 0.13076001, -1.7984537, 2.0676942, 2.3298883
544, 477402257, 0.72982687, 0.13575338, -0.65640026, 0.13442308, -1.386768, -1.0396411, -0.7911587
545, 477418924, 0.72677845, 0.12790635, -0.66053665, 0.13831708, -0.90898025, -2.2765572, 0.54189014
546, 477435591, 0.72447973, 0.12138957, -0.66299695, 0.14434634, -1.1859436, -1.286253, 1.5714703
547, 477452258, 0.7233103, 0.11593279, -0.66395915, 0.15015648, -1.5532782, -1.0586449, 2.347271
548, 477468925, 0.72317356, 0.11109861, -0.6637444, 0.15532997, -2.463135, 1.2730609, 2.508788
549, 477485592, 0.7240856, 0.10641341, -0.66282505, 0.1582603, -3.11146, 2.0207303, 1.19349
550, 477502259, 0.7258767, 0.10113241, -0.66160655, 0.1586164, -2.9417741, 2.645192, 0.8175602
551, 477518926, 0.72774357, 0.09569493, -0.660752, 0.15698963, -2.31578, 2.3851519, 0.06801796
552, 477535593, 0.72893405, 0.090903014, -0.6607502, 0.15429835, -1.2078406, 1.1492933, -0.74298954
553, 477552260, 0.72913194, 0.08684452, -0.66186345, 0.15089221, -0.8208107, -0.013778065, -1.9502387
554, 477568927, 0.72889835, 0.08398846, -0.66322404, 0.14762905, -0.5347342, -0.72036207, -2.039094
555, 477585594, 0.72869444, 0.0811315, -0.66455644, 0.14420061, -0.3110337, -0.7261208, -1.7577276
556, 477602261, 0.72870356, 0.078190714, -0.6655168, 0.14132166, -0.1467653, -0.24822639, -1.4631119
557, 477618928, 0.7289928, 0.07505123, -0.6659689, 0.13938914, -0.0024269037, 0.53809685, -1.0925417
558, 477635595, 0.7299989, 0.071162164, -0.6655008, 0.1383952, 0.16414255, 1.1661242, -1.0130472
559, 477652262, 0.73159707, 0.067004904, -0.6642625, 0.13797964, 0.2175979, 0.64886564, -0.97155476
560, 477668929, 0.7336271, 0.06319347, -0.6624589, 0.13767019, 0.390917, 0.42358243, -1.0413408
561, 477685596, 0.73552305, 0.060185097, -0.66069984, 0.13735458, 0.24057683, 0.47025543, -1.4742355
562, 477702263, 0.7370651, 0.05761705, -0.6593115, 0.13686067, -0.09108913, 0.69976944, -1.6917439
563, 477718930, 0.7388528, 0.054743517, -0.6577358, 0.13597953, -0.21331853, 0.76464266, -1.3992167
564, 477735597, 0.7409678, 0.050595224, -0.65594214, 0.13473575, 0.0129154725, 0.83169276, -0.9671259
565, 477752264, 0.7435951, 0.04484894, -0.65366566, 0.1333541, 0.5717287, 1.1426601, -0.7644949
566, 477768931, 0.74642956, 0.038433146, -0.65103126, 0.13240568, 0.42954004, 1.776894, -0.4853344
567, 477785598, 0.7485171, 0.031726964, -0.6490713, 0.13201985, 0.13226558, 2.086489, 0.34235954
568, 477802265, 0.7500849, 0.025071118, -0.6475183, 0.13217828, 0.55282754, 1.4634395, 1.4308825
569, 477818932, 0.7513878, 0.01934708, -0.646141, 0.13247968, 1.1643885, 0.69080025, 2.3564367
570, 477835599, 0.752526, 0.014463179, -0.64505404, 0.13193864, 1.772785, 0.49448353, 2.2390442
571, 477852266, 0.753629, 0.010638513, -0.644082, 0.13075015, 2.2121224, 0.5819102, 1.4567804
572, 477868933, 0.7541804, 0.007482186, -0.6437623, 0.12935664, 2.4139404, 1.4138173, 1.0602207
573, 477885600, 0.75390834, 0.004753839, -0.64430153, 0.12838307, 2.306065, 2.002924, 0.6157532
574, 477902267, 0.75192046, 0.003316462, -0.64677525, 0.12764591, 1.0010511, 1.3671403, 0.108979225
575, 477918934, 0.7471795, 0.006244011, -0.65277517, 0.12480086, -0.47115725, -2.1000526, 1.4579344
576, 477935601, 0.7409291, 0.014128491, -0.6605115, 0.12064862, 0.11836129, -2.1488967, 1.7180929
577, 477952268, 0.73649544, 0.024415568, -0.665719, 0.11748916, -2.3464274, 0.19029927, -0.14260197
578, 477968935, 0.73423225, 0.03285294, -0.66859263, 0.11320132, -3.0415094, 0.6199794, -0.8895922
579, 477985602, 0.73359454, 0.038890336, -0.6699129, 0.10747243, -2.4547706, -1.367307, -1.3147316
580, 478002269, 0.7332504, 0.045012638, -0.6707868, 0.101832, -1.3857709, -2.49214, 1.3991518
581, 478018936, 0.73302495, 0.052276317, -0.67121446, 0.09705437, 0.2634954, -2.5742576, 3.9892054
582, 478035603, 0.7337333, 0.058641754, -0.6701915, 0.095115796, -0.48715276, -1.8362411, 3.0040398
583, 478052270, 0.7335672, 0.064205185, -0.66966957, 0.09647152, -0.183902, -2.1136153, 1.398222
584, 478068937, 0.7330263, 0.06909633, -0.6693297, 0.09951274, -0.21417414, -1.8679988, 0.50805855
585, 478085604, 0.7325223, 0.0732692, -0.66895825, 0.10268687, -0.7650075, -0.78422517, -0.24881077
586, 478102271, 0.731596, 0.07636566, -0.66912997, 0.105867684, -0.98830944, -0.014055668, -1.3658066
587, 478118938, 0.73059475, 0.078503914, -0.6694504, 0.10914016, -0.97608286, -0.30357015, -1.9866724
588, 478135605, 0.7291591, 0.080732174, -0.6702417, 0.11221637, -0.6334755, -0.76159304, -1.9865723
589, 478152272, 0.7275905, 0.084046245, -0.67113984, 0.114571884, -0.008430014, -1.0097362, -1.6414042
590, 478168939, 0.7268472, 0.088090695, -0.67127174, 0.11547509, 0.28326824, -1.0567561, -1.227171
591, 478185606, 0.72727317, 0.09246311, -0.6702471, 0.11532773, 0.38957414, -0.47048151, -1.0131626
592, 478202273, 0.7287162, 0.09697597, -0.6680759, 0.11510824, 0.3010536, 0.18708079, -1.0639343
593, 478218940, 0.73077327, 0.10098944, -0.6652272, 0.115115, 0.07276062, 0.5940056, -1.317378
594, 478235607, 0.7329989, 0.10413937, -0.6622804, 0.11514941, -0.025129115, 0.75813556, -1.5772438
595, 478252274, 0.73548937, 0.10646783, -0.6591497, 0.1151029, 0.29940096, 0.4250591, -1.4716682
596, 478268941, 0.7383192, 0.10887194, -0.655609, 0.114958644, 0.85146546, -0.05097878, -1.1229124
597, 478285608, 0.7411548, 0.11259629, -0.6518181, 0.114681676, 1.1035023, -0.63614887, -0.9739609
598, 478302275, 0.74347866, 0.11752419, -0.6484121, 0.11400114, 1.0095286, -1.3612272, -1.3102884
599, 478318942, 0.7451598, 0.12313433, -0.6456254, 0.11291474, 0.9803864, -1.37652, -0.8846464
600, 478335609, 0.746783, 0.12862147, -0.6429178, 0.111514896, 1.3797061, -1.4974754, 0.4264183
601, 478352276, 0.7482081, 0.13331538, -0.6404792, 0.11047548, 1.5045686, -0.9970439, 1.2789879
602, 478368943, 0.7488313, 0.1373339, -0.63885766, 0.11072032, 1.524104, 0.041564357, 1.6451864
603, 478385610, 0.7488756, 0.140734, -0.6378065, 0.112201005, 1.7393153, 1.053322, 1.6194515
604, 478402277, 0.748523, 0.14328027, -0.63741016, 0.11357606, 2.4378111, 1.45516, 1.4859247
605, 478418944, 0.7476819, 0.14585745, -0.63762605, 0.114618525, 3.2004848, 1.0005943, 1.4852037
606, 478435611, 0.7464059, 0.14852542, -0.6383413, 0.11552452, 2.2685554, -0.031581488, 1.2982388
607, 478452278, 0.7442235, 0.14887044, -0.6405773, 0.116777115, 1.5302408, -0.20209594, 2.8175774
608, 478468945, 0.7380412, 0.14663748, -0.64738864, 0.12119289, -2.5864017, 2.857745, 3.3469944
609, 478485612, 0.7330794, 0.13803636, -0.6540534, 0.12554543, -2.0148852, 0.84103566, 1.7493811
610, 478502279, 0.72997737, 0.12853125, -0.6587974, 0.12886348, -1.9760714, -2.0615838, -0.74197197
611, 478518946, 0.7270321, 0.12065648, -0.6625045, 0.13401906, -1.4380305, -1.8985459, 0.42036343
612, 478535613, 0.7253717, 0.11480121, -0.6641637, 0.13982217, -1.978802, -2.0603952, -0.1520729
613, 478552280, 0.7238348, 0.11058197, -0.66548234, 0.14482844, -1.8235542, -0.8006541, 1.2397108
614, 478568947, 0.7232699, 0.107169956, -0.66565835, 0.14933605, -2.3972414, 0.45658165, 1.3664837
615, 478585614, 0.7232139, 0.10367356, -0.6656756, 0.15197545, -2.4122996, 1.4290168, 0.78528786
616, 478602281, 0.72385603, 0.099891156, -0.6654163, 0.15258601, -2.348566, 1.9575453, 0.06349754
617, 478618948, 0.7249456, 0.09616751, -0.6649595, 0.15179461, -1.7786744, 2.0074496, 0.11051655
618, 478635615, 0.72560143, 0.0927255, -0.6651252, 0.15006697, -1.2474146, 1.4847605, -0.8556757
619, 478652282, 0.7255543, 0.08985266, -0.66604257, 0.14795929, -0.88701385, 0.68111336, -1.7776661
620, 478668949, 0.72474766, 0.087794505, -0.66769, 0.14570552, -0.5808221, 0.15712129, -1.6823635
621, 478685616, 0.72385645, 0.08558187, -0.66949624, 0.14314169, -0.1498167, -1.5947649E-4, -1.1726608
622, 478702283, 0.72298557, 0.082886994, -0.6712038, 0.14111802, 0.07768729, 0.28189886, -0.77342033
623, 478718950, 0.72244745, 0.07912125, -0.6724531, 0.14008394, -0.07594032, 0.8874656, -0.5732746
624, 478735617, 0.7227385, 0.074356414, -0.6727323, 0.13985139, -0.1721604, 1.0917492, -0.39692974
625, 478752284, 0.7241784, 0.06901631, -0.67174757, 0.1398736, 0.1039076, 0.83990014, -0.29010963
626, 478768951, 0.726538, 0.063940465, -0.6696842, 0.13994443, 0.2759178, 0.6062013, -0.6586323
627, 478785618, 0.72899234, 0.0597941, -0.6673727, 0.14005563, 0.45306745, 0.5959938, -1.5133419
628, 478802285, 0.73133004, 0.056258462, -0.6651333, 0.13998653, 0.24194227, 0.7708332, -2.0548062
629, 478818952, 0.7338262, 0.052536458, -0.662778, 0.13953969, -0.12198398, 0.8494006, -1.5621834
630, 478835619, 0.73653835, 0.047922146, -0.660273, 0.13878539, -0.011619992, 1.1664205, -0.85739326
631, 478852286, 0.7395833, 0.041990723, -0.65751576, 0.13759838, 0.13398573, 1.4759147, -0.9622984
632, 478868953, 0.7422293, 0.03520821, -0.6551748, 0.1364151, -0.10190626, 1.8089447, -1.1673126
633, 478885620, 0.7439671, 0.028808016, -0.6536103, 0.1359548, -0.20140395, 1.49025, -0.5614948
634, 478902287, 0.7450737, 0.02301485, -0.6526285, 0.13571532, 0.3801182, 0.86261195, 0.7271023
635, 478918954, 0.74631757, 0.017931715, -0.65148467, 0.13514268, 1.5564575, 0.5701597, 2.3679962
636, 478935621, 0.74774206, 0.013491541, -0.6502094, 0.13391893, 2.2046642, 0.8489029, 3.204565
637, 478952288, 0.7485535, 0.009751894, -0.649709, 0.13212803, 2.4997828, 1.649669, 2.1039238
638, 478968955, 0.748616, 0.005937889, -0.65017414, 0.12969133, 2.683516, 2.2767859, 0.53019714
639, 478985622, 0.7468802, 0.0038933977, -0.65255845, 0.12778637, 1.4523783, 1.7318479, -0.57761097
640, 479002289, 0.74271464, 0.0060012005, -0.6579028, 0.12453967, 0.8660528, -1.1864566, 1.0261269
641, 479018956, 0.73561853, 0.013073936, -0.66674733, 0.11895245, 0.08834081, -2.3920436, 1.3774939
642, 479035623, 0.7306798, 0.0236524, -0.67272806, 0.11398181, -1.6083411, -0.34087184, 0.3354597
643, 479052290, 0.72833496, 0.033424195, -0.67571545, 0.10875055, -3.1774874, 0.43409145, -0.020417213
644, 479068957, 0.727849, 0.041177932, -0.6768803, 0.10188453, -2.8917365, -2.2799187, 0.15731812
645, 479085624, 0.7279893, 0.048518106, -0.6771971, 0.095333666, -2.0960343, -4.042189, 1.3764553
646, 479102291, 0.7288832, 0.05609034, -0.67634434, 0.090269886, -0.511606, -2.3541346, 3.3784113
647, 479118958, 0.7302616, 0.061898332, -0.6746839, 0.08772321, -0.63566995, -0.25662997, 2.443532
648, 479135625, 0.7304983, 0.066021815, -0.67392683, 0.08856084, -0.64553267, -0.29663298, 0.94163895
649, 479152292, 0.72999465, 0.06939747, -0.6737445, 0.09147194, -0.50055057, -1.5035857, 0.6518421
650, 479168959, 0.7296476, 0.07235672, -0.6733712, 0.09464223, 0.022769265, -1.7009131, 0.3023548
651, 479185626, 0.72944, 0.07502565, -0.6728511, 0.097810596, 0.2999736, -1.4297377, -0.7152395
652, 479202293, 0.7291146, 0.07780278, -0.6723633, 0.10135722, 0.18859978, -1.3260999, -1.4597797
653, 479218960, 0.72813004, 0.08092706, -0.6724919, 0.10506696, 0.23852095, -1.2612671, -1.4761972
654, 479235627, 0.72657496, 0.0847811, -0.6731569, 0.108479574, 0.34518045, -0.599372, -1.049099
655, 479252294, 0.7254184, 0.08924715, -0.67339516, 0.11112741, 0.34081033, -0.0062795966, -0.99818707
656, 479268961, 0.72519445, 0.09379652, -0.6727714, 0.11260961, -0.028127318, 0.2561356, -1.3289375
657, 479285628, 0.7258321, 0.09816666, -0.67130584, 0.11351924, -0.19127926, 0.49675816, -1.5750313
658, 479302295, 0.7274484, 0.10223335, -0.66882116, 0.114246935, -0.16273934, 0.47052026, -1.7075491
659, 479318962, 0.72982556, 0.10576807, -0.6655642, 0.11488755, -0.14672105, 0.20122759, -1.4978657
660, 479335629, 0.7327406, 0.108611956, -0.661823, 0.11529164, -0.001810008, -0.03811913, -1.2875223
661, 479352296, 0.73569566, 0.11114478, -0.6580882, 0.1154373, 0.29596424, -0.095663935, -1.3418875
662, 479368963, 0.73844576, 0.11424954, -0.6544409, 0.11558151, 0.61069417, -0.31622702, -1.0960569
663, 479385630, 0.7410389, 0.118209705, -0.6507968, 0.11557853, 0.7100028, -0.62069356, -0.6851187
664, 479402297, 0.74326634, 0.12292536, -0.6474691, 0.11504567, 0.7790723, -0.69080573, -0.4037218
665, 479418964, 0.74544823, 0.12797143, -0.6441815, 0.11387479, 1.1303649, -0.928906, 0.26888847
666, 479435631, 0.7476091, 0.13248758, -0.6410214, 0.11236714, 1.4306595, -0.7694237, 1.3260307
667, 479452298, 0.74902415, 0.13654284, -0.63865125, 0.11158164, 1.7708123, 0.12601739, 2.086319
668, 479468965, 0.74953896, 0.14001136, -0.6371682, 0.11230162, 1.9911057, 0.8968766, 1.867342
669, 479485632, 0.749518, 0.14215143, -0.63647056, 0.11370013, 2.042435, 0.91073, 1.3832369
670, 479502299, 0.7491978, 0.1434116, -0.6362517, 0.11544102, 2.6111958, 0.75797164, 1.3836603
671, 479518966, 0.7484166, 0.14428955, -0.6366339, 0.11729239, 1.0212302, -0.4507712, 1.1507883
672, 479535633, 0.747168, 0.14324863, -0.637822, 0.12004115, 0.4415114, 0.7343956, 3.451909
673, 479552300, 0.7417973, 0.13920355, -0.6442373, 0.123792455, -2.7515137, 2.4567368, 2.7213078
674, 479568967, 0.7384341, 0.1312421, -0.6491194, 0.12705024, -1.2584763, 0.89336675, 0.41836452
675, 479585634, 0.7360503, 0.123638876, -0.65286094, 0.12931815, -0.9423753, -2.6720986, -1.0998287
676, 479602301, 0.73311937, 0.117239594, -0.6565364, 0.13325863, -0.34359664, -2.675459, -0.039943695
677, 479618968, 0.7306882, 0.112074465, -0.6590048, 0.13875833, -0.8655736, -1.753413, 0.36738777
678, 479635635, 0.72876894, 0.10737276, -0.66079557, 0.14395519, -1.7059528, -0.3795201, 1.5878992
679, 479652302, 0.7284819, 0.10278437, -0.6608562, 0.1484108, -2.5524468, 1.2696925, 1.645215
680, 479668969, 0.7290621, 0.09900077, -0.6600962, 0.15148379, -2.2246628, 1.6362267, 1.4848213
681, 479685636, 0.73037505, 0.09538454, -0.65896213, 0.15241423, -1.762304, 1.7386703, 0.56608295
682, 479702303, 0.73165333, 0.09205955, -0.65815884, 0.15179697, -1.3199822, 1.4496089, -0.51430607
683, 479718970, 0.73231, 0.08907664, -0.65813696, 0.15049994, -0.94731563, 0.82182634, -1.3465099
684, 479735637, 0.7321842, 0.08640349, -0.6589755, 0.14899433, -0.6823712, 0.54981434, -1.9252725
685, 479752304, 0.73137796, 0.08422751, -0.66045845, 0.147627, -0.7561975, 0.44050488, -1.9113598
686, 479768971, 0.7302808, 0.08184929, -0.66229904, 0.1461435, -0.7445755, 0.5057804, -1.6641407
687, 479785638, 0.72930974, 0.07874171, -0.6640357, 0.14481243, -0.43391597, 0.7147487, -1.4211807
688, 479802305, 0.72889817, 0.07490341, -0.6650524, 0.14425431, -0.2840653, 1.0497502, -1.0275335
689, 479818972, 0.72935665, 0.07041042, -0.66500145, 0.14443463, -0.35416657, 1.163917, -0.8898926
690, 479835639, 0.73087424, 0.065212354, -0.66382486, 0.14461619, -0.04236375, 1.0200653, -0.9260359
691, 479852306, 0.73303324, 0.059971847, -0.66194785, 0.14456075, 0.10646101, 0.8385138, -1.2762318
692, 479868973, 0.7352666, 0.055108674, -0.6599751, 0.14417316, 0.21757333, 0.8016582, -1.7361317
693, 479885640, 0.73747206, 0.05074974, -0.6580228, 0.14343104, 0.24065417, 0.8752479, -1.7417135
694, 479902307, 0.73997164, 0.04634717, -0.65579563, 0.1422422, 0.20529442, 0.85904664, -1.1737843
695, 479918974, 0.74267334, 0.04144537, -0.65340525, 0.1406666, 0.30964547, 0.7944427, -0.94654846
696, 479935641, 0.74514383, 0.03575331, -0.6513266, 0.13879076, 0.32540715, 1.093551, -1.0052013
697, 479952308, 0.7470989, 0.029411845, -0.64975655, 0.13711846, 0.113589734, 1.9733543, -0.21793747
698, 479968975, 0.7487585, 0.023193553, -0.6482771, 0.13625911, -0.06769269, 2.535167, 1.29492
699, 479985642, 0.7504917, 0.016772963, -0.6465997, 0.13563511, 0.3398425, 2.1304328, 2.3708324
700, 480002309, 0.7520756, 0.010537446, -0.64511365, 0.1345608, 1.1800336, 1.3600769, 2.5693188
701, 480018976, 0.7532671, 0.0045510307, -0.6442139, 0.13252734, 2.163977, 1.0973992, 1.8549881
702, 480035643, 0.75379974, -4.9321353E-4, -0.6441433, 0.12989344, 2.6555834, 1.1862934, 0.82772255
703, 480052310, 0.753207, -0.0040547065, -0.6453347, 0.12733056, 3.1107147, 1.2085137, 0.08508682
704, 480068977, 0.750512, -0.0051654764, -0.6488359, 0.12539598, 1.8220441, 0.48509756, -0.26330376
705, 480085644, 0.74533087, -0.0019589663, -0.6554716, 0.1218275, 0.41738406, -2.356815, 1.9771767
706, 480102311, 0.73788434, 0.0068511553, -0.664732, 0.11669719, -0.05932302, -2.7980816, 2.3724632
707, 480118978, 0.7331913, 0.018757518, -0.67039704, 0.11248803, -2.2635782, -0.46350312, 0.45837975
708, 480135645, 0.7316243, 0.029036041, -0.6725846, 0.10733013, -3.3383791, -0.3328845, -0.09778118
709, 480152312, 0.73145634, 0.036642242, -0.6733951, 0.10087149, -3.1057386, -1.7213693, -0.1266222
710, 480168979, 0.73196924, 0.04346984, -0.67323786, 0.09533683, -2.2524562, -1.8799657, 1.7474585
711, 480185646, 0.732585, 0.049815796, -0.6727187, 0.09107198, -0.65493006, -0.9510064, 3.4631891
712, 480202313, 0.7336966, 0.05461685, -0.67137176, 0.08929215, -0.74150157, -0.58202815, 2.1087046
713, 480218980, 0.7340334, 0.05890184, -0.67052054, 0.09019244, -0.3063996, -1.9541966, 0.5068455
714, 480235647, 0.73413885, 0.06307021, -0.6697381, 0.09230548, 0.24062064, -2.530466, 0.3576765
715, 480252314, 0.7339895, 0.06754275, -0.6691232, 0.09475524, 0.3579721, -1.8913329, -0.26257706
716, 480268981, 0.7334067, 0.072179124, -0.6688993, 0.09739265, 0.27113238, -1.0718541, -1.07654
717, 480285648, 0.7323494, 0.07671431, -0.6691483, 0.10013509, 0.016603436, -0.6432346, -1.360714
718, 480302315, 0.73095006, 0.08108225, -0.66975975, 0.10279472, -0.11626384, -0.29115462, -1.1140823
719, 480318982, 0.7296642, 0.08565359, -0.6701733, 0.10549182, 0.08814949, -0.06812334, -0.7778425
720, 480335649, 0.7292479, 0.090342365, -0.6696244, 0.10791692, 0.25158706, -0.12152477, -0.96559525
721, 480352316, 0.7297441, 0.09501822, -0.668131, 0.1097869, 0.28618464, -0.17940055, -1.3412123
722, 480368983, 0.73103976, 0.099700585, -0.66575855, 0.1114147, 0.28746358, -0.052043315, -1.6146679
723, 480385650, 0.732967, 0.104385346, -0.6626633, 0.11290439, 0.24831037, 0.11070591, -1.9256978
724, 480402317, 0.73526394, 0.10850388, -0.65923876, 0.11412723, -0.02678244, 0.011883569, -2.0994115
725, 480418984, 0.7377563, 0.111811236, -0.65575814, 0.11490016, -0.03724575, -0.20416477, -2.2275987
726, 480435651, 0.74004775, 0.11490556, -0.65253884, 0.115438715, 0.32560027, -0.4127197, -2.262833
727, 480452318, 0.74249655, 0.11851308, -0.6489947, 0.116044454, 0.47924173, -0.4123143, -2.0056376
728, 480468985, 0.74451447, 0.122709736, -0.64581996, 0.11646415, 0.4838615, -0.19577388, -1.8381371
729, 480485652, 0.7458554, 0.12740013, -0.6433851, 0.1163253, 0.74765086, -0.19424847, -0.83207035
730, 480502319, 0.7475471, 0.13191256, -0.6407052, 0.11522317, 0.68202835, -0.5688057, 1.0396557
731, 480518986, 0.7491462, 0.13564897, -0.63841337, 0.11320279, 0.94685006, -0.35642347, 2.3803005
732, 480535653, 0.7499018, 0.13899279, -0.6370953, 0.11155678, 1.6369468, 0.621305, 2.5630302
733, 480552320, 0.7501296, 0.14212334, -0.63620335, 0.11117107, 2.114116, 1.0800426, 2.0631523
734, 480568987, 0.75001454, 0.14439085, -0.63576865, 0.11151025, 2.834712, 0.7254637, 2.0453634
735, 480585654, 0.7493568, 0.14605117, -0.63599735, 0.11246366, 3.5314999, 0.56568927, 2.196558
736, 480602321, 0.7478259, 0.14739943, -0.63718385, 0.11416487, 2.0143247, 0.12578225, 1.5874014
737, 480618988, 0.7459183, 0.14592767, -0.6392647, 0.11687164, 1.297001, 0.7987135, 3.4262285
738, 480635655, 0.7403433, 0.14104706, -0.64599246, 0.12123641, -2.2832496, 1.8947886, 2.8265638
739, 480652322, 0.73621833, 0.13260168, -0.6517442, 0.12504382, -1.222754, -0.12057943, 0.5038233
740, 480668989, 0.7330173, 0.124528706, -0.65637696, 0.1278851, -1.6913561, -2.8838303, -1.2667608
741, 480685656, 0.7297363, 0.11739686, -0.6604556, 0.13231885, -1.6728255, -1.4000777, -0.28413963
742, 480702323, 0.7273803, 0.111073986, -0.66308457, 0.13750106, -1.9386888, -0.2743949, 0.6262808
743, 480718990, 0.7261231, 0.105323374, -0.66439426, 0.14226612, -1.8082412, 0.3985321, 2.3443794
744, 480735657, 0.7260854, 0.100600705, -0.6643573, 0.14599963, -2.0101235, -0.09694349, 1.542429
745, 480752324, 0.7264236, 0.09717418, -0.6641109, 0.14774895, -1.5652853, 0.48352244, 1.286499
746, 480768991, 0.7274537, 0.09391154, -0.66362125, 0.14698836, -2.1761189, 1.6731863, 0.5684509
747, 480785658, 0.728792, 0.09059641, -0.66306007, 0.14495862, -1.8971646, 2.0091562, -0.20831394
748, 480802325, 0.7301357, 0.08740485, -0.6624895, 0.14274839, -1.4220138, 1.2377135, -1.1644077
749, 480818992, 0.73076856, 0.08504714, -0.66252416, 0.14075887, -0.75375116, 0.4292879, -1.7864065
750, 480835659, 0.7308522, 0.08290889, -0.6631587, 0.13859594, -0.16711773, -8.538195E-5, -2.0302467
751, 480852326, 0.73045075, 0.080482155, -0.66440266, 0.13616383, -0.02760072, -0.21129724, -2.24129
752, 480868993, 0.72954977, 0.07759695, -0.666142, 0.1341554, -0.011129604, 0.17043321, -1.8751588
753, 480885660, 0.72917336, 0.073820755, -0.6671223, 0.13345976, 0.054123662, 0.7914201, -0.9268799
754, 480902327, 0.72982395, 0.06914317, -0.666865, 0.1336957, -0.052868415, 1.4250787, -0.56864834
755, 480918994, 0.73148364, 0.06374218, -0.665497, 0.13412522, -0.20619518, 1.3682393, -1.0460835
756, 480935661, 0.7338308, 0.058276866, -0.66338205, 0.13426632, -0.14982833, 0.8918696, -1.6087208
757, 480952328, 0.73622876, 0.053316604, -0.6612172, 0.13387781, 0.094949424, 0.53243625, -1.9799304
758, 480968995, 0.7382921, 0.0488254, -0.65947497, 0.13281745, 0.28890255, 0.39570352, -2.0967622
759, 480985662, 0.7402103, 0.043975912, -0.6579749, 0.13126674, 0.36720163, 0.49337584, -1.687377
760, 481002329, 0.74223477, 0.03803895, -0.65640664, 0.12952943, 0.37946734, 1.0130945, -1.1866941
761, 481018996, 0.7438421, 0.031526692, -0.65514845, 0.12842235, 0.15481715, 1.657716, -0.4570446
762, 481035663, 0.74501365, 0.02454073, -0.65418017, 0.12809253, 0.1306326, 1.6656046, 0.7565384
763, 481052330, 0.74592406, 0.018186405, -0.6532863, 0.12841588, 0.62968206, 1.1402732, 1.7784138
764, 481068997, 0.74684423, 0.012800343, -0.65236723, 0.12838961, 1.4835324, 0.7227294, 2.7672892
765, 481085664, 0.7480921, 0.0081098415, -0.65124357, 0.12720466, 2.0885909, 0.5420191, 2.7513456
766, 481102331, 0.74945354, 0.0044095516, -0.6500495, 0.12546927, 2.720199, 0.9453617, 1.9338055
767, 481118998, 0.74995804, 0.0020667054, -0.64975756, 0.12402052, 2.7429361, 1.1341443, 0.7875147
768, 481135665, 0.7484587, 0.0015117079, -0.6516018, 0.12340829, 1.4217601, 0.8465227, -0.15834236
769, 481152332, 0.7445402, 0.0038124286, -0.6563874, 0.121688455, 0.93987197, -1.3834397, 1.3918657
770, 481168999, 0.7379953, 0.01098698, -0.6642798, 0.118243694, 0.59565216, -2.205118, 1.6961527
771, 481185666, 0.7337398, 0.021655213, -0.6691452, 0.115795575, -1.6743364, 0.17130882, 1.1082602
772, 481202333, 0.7307836, 0.030967817, -0.6725137, 0.11282183, -3.606509, 1.6296086, -0.07890129
773, 481219000, 0.728893, 0.0379622, -0.67497486, 0.1081202, -3.7127333, -0.032982543, -1.0908861
774, 481235667, 0.7280873, 0.044198688, -0.6762745, 0.102932796, -2.705626, -2.5239909, -0.09401131
775, 481252334, 0.72810036, 0.050421283, -0.6766342, 0.09747219, -1.077565, -2.2807174, 2.978859
776, 481269001, 0.7293705, 0.055536933, -0.67546177, 0.093236595, -0.6257527, -1.571598, 3.2846498
777, 481285668, 0.7299723, 0.059550837, -0.67460006, 0.09228225, -0.12784271, -1.33735, 1.8650732
778, 481302335, 0.72972393, 0.06388821, -0.67422146, 0.09409524, 0.24806944, -2.312075, 0.7852354
779, 481319002, 0.72929376, 0.06820263, -0.673953, 0.09629993, 0.10639306, -1.9779006, -0.032348633
780, 481335669, 0.7286326, 0.07239994, -0.673883, 0.09869948, 0.05179108, -1.2276717, -0.9672489
781, 481352336, 0.7275577, 0.07609218, -0.6742088, 0.10158356, -0.22048123, -0.77127427, -1.6274252
782, 481369003, 0.7259806, 0.07956546, -0.6749967, 0.104919806, -0.29198256, -0.58115506, -1.5356913
783, 481385670, 0.7242251, 0.08301605, -0.67600584, 0.107841805, -0.39216375, -0.64217025, -0.8997669
784, 481402337, 0.72327, 0.08676176, -0.6762205, 0.10993494, 0.115612075, -0.51398176, -0.2735424
785, 481419004, 0.72360426, 0.091111735, -0.6750423, 0.111447476, 0.30505362, -0.28201786, -0.6856594
786, 481435671, 0.7249346, 0.09572321, -0.6728415, 0.11224212, 0.026591783, -0.31262523, -1.2500839
787, 481452338, 0.72696215, 0.100383, -0.66989195, 0.112698816, -0.13118333, 0.0679709, -1.3737259
788, 481469005, 0.7296138, 0.10473867, -0.66625494, 0.11315941, -0.24780211, 0.25593865, -1.5234203
789, 481485672, 0.7326116, 0.1081996, -0.66231686, 0.113650836, -0.23049505, 0.106241465, -1.8632154
790, 481502339, 0.7355755, 0.11104314, -0.65843105, 0.11434002, 0.18036042, -0.17018723, -1.8662739
791, 481519006, 0.73859686, 0.114165634, -0.65434885, 0.1152191, 0.60871965, -0.5987286, -1.4180746
792, 481535673, 0.7415267, 0.117945224, -0.65020466, 0.11605219, 0.869224, -1.0135425, -1.2188673
793, 481552340, 0.7438985, 0.12281312, -0.6464765, 0.11664975, 1.0478395, -0.78858805, -1.0021963
794, 481569007, 0.7460559, 0.12846765, -0.6428978, 0.11656014, 1.0627589, -0.7138383, -0.35209656
795, 481585674, 0.74800694, 0.13367018, -0.6397418, 0.11556594, 1.0112253, -0.41418448, 0.60237885
796, 481602341, 0.7493335, 0.13771902, -0.63751847, 0.114499584, 1.0997651, 0.44704702, 1.202568
797, 481619008, 0.74967515, 0.14113903, -0.63637847, 0.11443955, 1.7636285, 1.3421143, 1.5193233
798, 481635675, 0.7496313, 0.14416368, -0.6356267, 0.115131885, 2.4374585, 1.4241834, 1.6760006
799, 481652342, 0.749506, 0.14641419, -0.63515323, 0.11571981, 3.005702, 0.6960477, 1.9247694
800, 481669009, 0.7490527, 0.14864579, -0.63503253, 0.11646913, 3.2271879, 0.56872416, 1.5923481
801, 481685676, 0.7474378, 0.14948308, -0.6366139, 0.11713846, 1.0351744, -0.7354609, 1.2230339
802, 481702343, 0.74375635, 0.1479541, -0.6406188, 0.12062621, -2.3019488, 2.2513614, 3.4969397
803, 481719010, 0.7378748, 0.1412304, -0.64819866, 0.12425886, -1.6715775, 2.1645606, 2.4823303
804, 481735677, 0.7350274, 0.13323161, -0.6526628, 0.12657979, -1.1707381, -1.6104419, -0.87818146
805, 481752344, 0.73237705, 0.12665668, -0.6563706, 0.12948623, -0.995153, -2.8370497, 0.6200981
806, 481769011, 0.730058, 0.120992735, -0.6590094, 0.13449779, -2.192199, -1.811498, 0.68416786
807, 481785678, 0.7282391, 0.11564499, -0.660866, 0.13984665, -2.306419, -0.71976334, 1.1442289
808, 481802345, 0.727782, 0.11089657, -0.66109043, 0.14492053, -2.3300738, 0.4422034, 1.8395815
809, 481819012, 0.7283066, 0.106998466, -0.6604223, 0.14822406, -2.8456671, 0.85737044, 1.3763304
810, 481835679, 0.72959334, 0.10375897, -0.65930104, 0.1491873, -1.8472269, 1.4637333, 1.3334112
811, 481852346, 0.7317551, 0.10040709, -0.65766853, 0.14809488, -1.925291, 2.157348, -0.1277771
812, 481869013, 0.7336659, 0.09725079, -0.6565076, 0.14588137, -1.3753374, 1.8695239, -1.2032967
813, 481885680, 0.73452795, 0.09405799, -0.65666234, 0.14291003, -0.78249985, 0.99417186, -2.0518198
814, 481902347, 0.7340903, 0.0913046, -0.6582306, 0.1396937, -0.37266874, 0.35859314, -2.3534284
815, 481919014, 0.7330681, 0.08888507, -0.6603562, 0.1365555, -0.36301163, 0.027506957, -1.8057604
816, 481935681, 0.7319212, 0.08600496, -0.66263664, 0.13346988, -0.40469122, 0.13410978, -1.1312008
817, 481952348, 0.7311568, 0.08214138, -0.6644875, 0.13086653, -0.17887384, 0.49685338, -0.47595596
818, 481969015, 0.73146516, 0.077218324, -0.66503817, 0.12933432, -0.16381668, 1.0121735, -0.15972805
819, 481985682, 0.73279834, 0.071415864, -0.66437066, 0.1285497, -0.13045378, 1.1235147, -0.31481266
820, 482002349, 0.7348572, 0.06529451, -0.66279376, 0.12819207, 0.1732373, 0.7891743, -0.582325
821, 482019016, 0.7372118, 0.059553266, -0.66077006, 0.12791476, 0.5122595, 0.41580394, -1.2331095
822, 482035683, 0.7394199, 0.05463362, -0.6587822, 0.12761877, 0.5573217, 0.4721848, -1.9985104
823, 482052350, 0.7414332, 0.050403513, -0.6569428, 0.12716004, 0.22547965, 0.58636105, -2.0682545
824, 482069017, 0.74352384, 0.046028234, -0.65509194, 0.12615672, 0.12591513, 0.785011, -1.4355621
825, 482085684, 0.74589324, 0.040864717, -0.65303093, 0.124624014, 0.35044193, 1.0265433, -1.0180645
826, 482102351, 0.7483218, 0.034746923, -0.65091836, 0.12296192, 0.29947114, 1.6202552, -0.77403736
827, 482119018, 0.7502336, 0.027860813, -0.6492755, 0.12174423, 0.22581781, 2.3516264, -0.15695286
828, 482135685, 0.7517177, 0.020938836, -0.64788055, 0.121408455, 0.16009608, 2.122997, 0.6294174
829, 482152352, 0.7527395, 0.014264975, -0.646908, 0.1212315, 0.55566484, 0.96483254, 1.0669699
830, 482169019, 0.7536122, 0.008281194, -0.646108, 0.1206305, 1.6648613, -0.13677704, 1.5941439
831, 482185686, 0.7543053, 0.0035454966, -0.64558166, 0.119341336, 2.712912, -0.13171597, 1.8962431
832, 482202353, 0.7545212, 1.874417E-4, -0.64563024, 0.11775496, 3.2317932, 0.79578024, 1.2705173
833, 482219020, 0.75385535, -0.0025279224, -0.64672476, 0.115973845, 3.0318193, 1.8098357, 0.25203705
834, 482235687, 0.75140667, -0.0038287528, -0.6498152, 0.11454544, 1.742028, 1.5520487, -0.6508293
835, 482252354, 0.74660534, -9.92123E-4, -0.65588105, 0.111385494, 0.43402103, -1.8670554, 1.4938412
836, 482269021, 0.73905706, 0.007246975, -0.6651771, 0.106248416, 0.01860969, -2.4108932, 1.9490509
837, 482285688, 0.73436457, 0.018792614, -0.67076683, 0.102149695, -2.5349116, -0.26733282, 0.13902378
838, 482302355, 0.7322009, 0.02879944, -0.6735011, 0.09724061, -3.5813582, -0.24997203, -0.13934231
839, 482319022, 0.7315881, 0.035765678, -0.6747335, 0.09078151, -3.0967746, -2.6885972, 0.0049858093
840, 482335689, 0.73154557, 0.042641427, -0.6750748, 0.085461706, -2.2981849, -2.6561432, 2.2137222
841, 482352356, 0.73217976, 0.04895709, -0.67451125, 0.0809798, -0.8000637, -1.2952187, 4.4537086
842, 482369023, 0.7335305, 0.053248663, -0.6729435, 0.07906751, -1.1931497, -0.17580886, 2.7812061
843, 482385690, 0.7339189, 0.056775916, -0.67211276, 0.08006878, -0.55577034, -1.0730578, 1.0662336
844, 482402357, 0.7338464, 0.060084067, -0.6716056, 0.08253646, -0.19916837, -2.3376906, 0.14251423
845, 482419024, 0.7332159, 0.06361422, -0.6715784, 0.08565734, 0.05246341, -2.3457143, -0.44313812
846, 482435691, 0.73192674, 0.06729311, -0.6721265, 0.089485444, 0.014133618, -1.4473203, -0.8939314
847, 482452358, 0.7305602, 0.07100746, -0.6726471, 0.0937693, -0.20871952, -0.96490675, -1.1544924
848, 482469025, 0.72923005, 0.074017465, -0.6732428, 0.097446814, -0.6604857, -0.6551621, -0.9275179
849, 482485692, 0.728054, 0.077219084, -0.6736528, 0.10086414, -0.04785636, -0.19381462, -0.801774
850, 482502359, 0.7276857, 0.0810388, -0.67313457, 0.103939235, 0.25890937, 0.08430199, -1.0491047
851, 482519026, 0.72823834, 0.0850381, -0.6716911, 0.10618756, 0.053066894, -0.044778865, -1.4898405
852, 482535693, 0.729504, 0.08907214, -0.6695182, 0.10790058, 0.15272506, -0.0600258, -1.5222607
853, 482552360, 0.7312847, 0.092960924, -0.6667833, 0.10948998, 0.094915226, -0.10612451, -1.5770321
854, 482569027, 0.73320985, 0.096651316, -0.66388714, 0.111007914, 0.012925307, -0.15200266, -1.7200155
855, 482585694, 0.73519003, 0.10006523, -0.6609397, 0.112464815, 0.23739982, -0.03473643, -1.859066
856, 482602361, 0.7371976, 0.10352187, -0.6579272, 0.1138497, 0.5485352, 0.254258, -1.9362426
857, 482619028, 0.73933595, 0.10745614, -0.6547075, 0.11489369, 0.5535245, 0.22950321, -1.3832989
858, 482635695, 0.7414289, 0.11186705, -0.65156114, 0.11508265, 0.68187726, -0.07445535, -0.683239
859, 482652362, 0.7433502, 0.11709604, -0.64856875, 0.1143881, 1.1878185, -0.44712678, -0.01112175
860, 482669029, 0.7457268, 0.122761995, -0.64502865, 0.11298695, 1.4427967, -0.8516845, 0.82361126
861, 482685696, 0.7480921, 0.12815234, -0.6415199, 0.11133079, 1.3380688, -0.48667297, 1.4484034
862, 482702363, 0.749866, 0.13288799, -0.63864106, 0.110392414, 1.0913149, 0.46358544, 1.4343147
863, 482719030, 0.7506439, 0.13674332, -0.63694364, 0.11020391, 1.334058, 1.2095709, 0.96922207
864, 482735697, 0.75124013, 0.13961387, -0.63563514, 0.11009711, 1.9999899, 0.86625946, 1.2233934
865, 482752364, 0.75194204, 0.14206338, -0.6342787, 0.109994724, 2.834058, 0.46414745, 1.8638983
866, 482769031, 0.7522185, 0.14490835, -0.63327354, 0.11018534, 3.2692578, 0.118855365, 1.3782892
867, 482785698, 0.75112, 0.14674011, -0.63416225, 0.11014317, 1.0984384, -1.6303086, 0.5295954
868, 482802365, 0.74765307, 0.14638516, -0.63783026, 0.112987556, -1.3700615, 1.4458183, 3.3206806
869, 482819032, 0.74099976, 0.14069003, -0.64608973, 0.117050216, -1.3567531, 2.0294392, 2.7094193
870, 482835699, 0.7378117, 0.13267244, -0.65076655, 0.12058922, -1.41007, -1.2260815, -0.60087776
871, 482852366, 0.73523134, 0.12558815, -0.6542967, 0.124760985, -1.200919, -2.2581909, -0.09972763
872, 482869033, 0.73337686, 0.118790925, -0.65650636, 0.13058878, -1.7029417, -1.0446416, 0.08990955
873, 482885700, 0.7318201, 0.11194065, -0.6583099, 0.13617522, -2.151191, -0.15739504, 1.1319771
874, 482902367, 0.731295, 0.105261534, -0.6589148, 0.14130051, -2.550396, 1.4963825, 2.4012337
875, 482919034, 0.7322752, 0.09899562, -0.65815246, 0.1442745, -3.181783, 1.3119705, 1.2137222
876, 482935701, 0.73399687, 0.092959315, -0.65701216, 0.1447386, -2.0329535, 1.5106567, 1.2569218
877, 482952368, 0.7359572, 0.087437674, -0.6558745, 0.14337891, -1.4072119, 1.7273573, 0.09294319
878, 482969035, 0.7372448, 0.08271751, -0.6555443, 0.14105566, -0.98414654, 0.96276397, -1.0573664
879, 482985702, 0.7375158, 0.07879312, -0.65632623, 0.13822089, -0.5534959, 0.16662511, -1.8982038
880, 483002369, 0.7370986, 0.075993806, -0.6576521, 0.13568872, -0.30874202, -0.24851863, -2.0032516
881, 483019036, 0.73645246, 0.0732543, -0.65913004, 0.13351399, -0.195602, -0.13483252, -1.4458227
882, 483035703, 0.7360245, 0.069822066, -0.6603577, 0.13163385, 0.04057699, 0.28521627, -1.0837765
883, 483052370, 0.7359853, 0.06567472, -0.6610007, 0.1307573, 0.10385619, 0.7872258, -0.753767
884, 483069037, 0.7366708, 0.06092628, -0.6606325, 0.13105638, 0.10773458, 0.97376037, -0.7591009
885, 483085704, 0.7384893, 0.05600072, -0.65885866, 0.13194627, 0.1555619, 0.6473158, -0.99740887
886, 483102371, 0.7414021, 0.051611677, -0.6557983, 0.13264619, 0.21558897, 0.425888, -1.4402514
887, 483119038, 0.74383086, 0.0485219, -0.653264, 0.13271946, 0.16603482, 0.5519758, -2.2200394
888, 483135705, 0.7456234, 0.046313185, -0.6514855, 0.13219139, 0.18377258, 0.9428578, -2.2010374
889, 483152372, 0.7474815, 0.044054825, -0.64970255, 0.13124129, 0.10300997, 1.2023473, -1.6517658
890, 483169039, 0.7495456, 0.040877115, -0.64775914, 0.13009831, 0.20733687, 1.1204112, -1.2539864
891, 483185706, 0.75162995, 0.036509905, -0.645824, 0.12898792, 0.66140836, 1.2080535, -0.90799046
892, 483202373, 0.753357, 0.031072631, -0.6442453, 0.12823063, 0.9842791, 1.6749771, -0.22338581
893, 483219040, 0.75416505, 0.025523148, -0.64348936, 0.12849978, 0.7926646, 2.1982732, 1.0384483
894, 483235707, 0.75455606, 0.019883681, -0.64302, 0.12954685, 0.7100171, 1.9895073, 2.4077911
895, 483252374, 0.7551888, 0.014422882, -0.6422067, 0.13061148, 1.2390937, 0.73255086, 2.9250345
896, 483269041, 0.75607586, 0.0100187175, -0.64127076, 0.13049021, 2.226274, -0.23827158, 2.2949095
897, 483285708, 0.75667167, 0.0073000416, -0.6408892, 0.1290848, 2.7435334, 0.18856645, 0.7741327
898, 483302375, 0.7561331, 0.0055940486, -0.6418843, 0.1273705, 2.8231282, 1.585452, -0.06374836
899, 483319042, 0.75400925, 0.0036979578, -0.6447029, 0.12578517, 1.6236372, 2.4123871, -0.6918011
900, 483335709, 0.750702, 0.004156124, -0.6490075, 0.12339222, 0.6609506, 0.9639022, 0.8821697
901, 483352376, 0.743876, 0.009775396, -0.65755755, 0.11907207, -0.97322905, -1.6428846, 1.3130589
902, 483369043, 0.73825663, 0.018847942, -0.664464, 0.11452797, -1.4522347, -1.4462, 0.08019543
903, 483385710, 0.73573214, 0.027814765, -0.6677791, 0.10955672, -3.022353, -0.6850113, -0.675127
904, 483402377, 0.73454773, 0.035083827, -0.66981196, 0.10279989, -2.7772088, -3.159778, -0.38289642
905, 483419044, 0.7342579, 0.04215436, -0.6706046, 0.096876875, -2.1139047, -3.139837, 1.4733887
906, 483435711, 0.73436046, 0.049534325, -0.67061186, 0.0924544, -0.54348606, -2.3412454, 4.102869
907, 483452378, 0.73489326, 0.055571154, -0.66983575, 0.09039274, -1.0146451, -0.9868306, 2.8148546
908, 483469045, 0.73466855, 0.06072029, -0.66958106, 0.09079325, -0.68586516, -1.4257656, 1.4966822
909, 483485712, 0.7339594, 0.06537139, -0.6696875, 0.092498705, -0.20294753, -2.2868752, 1.043704
910, 483502379, 0.73311603, 0.070427135, -0.6697361, 0.09508772, -0.10578645, -2.2831874, 0.23892498
911, 483519046, 0.73184407, 0.07591888, -0.6700867, 0.09813945, -0.31011572, -1.5866696, -0.6498194
912, 483535713, 0.7304557, 0.08101748, -0.670519, 0.101400085, -0.50347364, -1.0558264, -1.0558567
913, 483552380, 0.7290472, 0.08543943, -0.67099357, 0.104714364, -0.73724675, -0.58083946, -1.0355349
914, 483569047, 0.7275927, 0.089882314, -0.67142415, 0.10828986, -0.42745826, 0.022135494, -0.9855833
915, 483585714, 0.7267963, 0.09468285, -0.67105484, 0.111779645, -0.18735303, 0.118114196, -1.1510668
916, 483602381, 0.726989, 0.09918222, -0.6697914, 0.1141776, -0.49914378, -0.2140407, -1.332056
917, 483619048, 0.72809637, 0.102871805, -0.6677722, 0.115674436, -0.46264187, -0.08672158, -1.258295
918, 483635715, 0.7298802, 0.10622458, -0.6650399, 0.11713355, -0.29051566, 0.28537828, -1.542489
919, 483652382, 0.7317356, 0.10939488, -0.6622242, 0.11858386, -0.41206735, 0.16943617, -2.0802689
920, 483669049, 0.73354316, 0.1121343, -0.6595377, 0.11982359, -0.30130216, -0.18605296, -2.3054786
921, 483685716, 0.73539996, 0.11490597, -0.65677726, 0.1209722, 0.023850843, -0.3396556, -2.1168256
922, 483702383, 0.7370899, 0.11848137, -0.6540914, 0.12178846, 0.3229378, -0.33078387, -1.6104822
923, 483719050, 0.7385501, 0.12313461, -0.651567, 0.121856764, 0.3782358, -0.46310738, -1.3928108
924, 483735717, 0.7400768, 0.12866193, -0.64891946, 0.12100887, 0.6633869, -0.57178086, -0.7886696
925, 483752384, 0.7417612, 0.13441643, -0.64608914, 0.11957614, 1.0435932, -0.44139785, 0.38197708
926, 483769051, 0.74289477, 0.13973428, -0.6439876, 0.117765054, 1.2157423, -0.36349028, 1.2982407
927, 483785718, 0.743481, 0.14449249, -0.64255506, 0.11613819, 1.4617399, 0.46612722, 1.9617023
928, 483802385, 0.7436956, 0.14815295, -0.6416358, 0.1152305, 1.3955255, 1.2559218, 2.2513542
929, 483819052, 0.7434081, 0.15074533, -0.6413216, 0.115472645, 1.8779701, 1.459695, 2.1293325
930, 483835719, 0.74304897, 0.1523377, -0.64117277, 0.116516784, 2.1154764, 0.92172664, 1.2776308
931, 483852386, 0.7423303, 0.15329698, -0.6416115, 0.11741949, 2.524717, 0.5323504, 0.43864918
932, 483869053, 0.740866, 0.15295497, -0.64340603, 0.11729549, 0.36880487, -1.7771202, -0.17916584
933, 483885720, 0.73862606, 0.150934, -0.6462286, 0.1185173, 0.5001603, 0.64003885, 2.4501886
934, 483902387, 0.73286706, 0.14577341, -0.6532901, 0.12196383, -2.6135879, 1.6119772, 3.12578
935, 483919054, 0.72785723, 0.13635397, -0.6601622, 0.1257948, -2.521283, -0.25927347, 0.8545599
936, 483935721, 0.7257333, 0.12605876, -0.66375554, 0.12983085, -1.9740964, -1.970095, 0.43088055
937, 483952388, 0.72474515, 0.117331445, -0.6652609, 0.13569394, -1.6096733, -1.2077034, 0.6646204
938, 483969055, 0.7243367, 0.11121632, -0.66544336, 0.1419839, -0.8386622, -1.660104, 1.0752392
939, 483985722, 0.72419924, 0.10662535, -0.66534346, 0.14660028, -0.9102981, -1.0898069, 2.061757
940, 484002389, 0.7244207, 0.10389094, -0.66497135, 0.14913554, -1.2308309, -0.29051587, 1.6214914
941, 484019056, 0.72508955, 0.1012401, -0.66459346, 0.14939316, -1.7154222, 2.252955, 1.4585266
942, 484035723, 0.7263998, 0.09774148, -0.66397077, 0.14812146, -1.9328109, 3.1292157, 0.6504574
943, 484052390, 0.7280416, 0.09404581, -0.6631437, 0.14614558, -1.3368502, 2.331538, -0.44184017
944, 484069057, 0.72919255, 0.090618536, -0.662887, 0.14371641, -0.6321286, 1.1357372, -1.2902689
945, 484085724, 0.7296696, 0.08766503, -0.66328394, 0.1412747, 0.053650707, 0.47128534, -1.2167358
946, 484102391, 0.72972983, 0.08460278, -0.66414464, 0.1387658, 0.19271153, 0.18477201, -1.037282
947, 484119058, 0.7296574, 0.08104481, -0.6651928, 0.13622637, 0.24781328, 0.08280278, -1.119689
948, 484135725, 0.7299839, 0.07683417, -0.66570836, 0.13438502, 0.39796346, 0.3472755, -1.2649593
949, 484152392, 0.73127526, 0.072238445, -0.6649472, 0.13367999, 0.55142033, 0.5856877, -1.3257103
950, 484169059, 0.73340213, 0.06740856, -0.66306365, 0.13390656, 0.4993058, 0.6755775, -1.4164572
951, 484185726, 0.73592037, 0.06273192, -0.6605718, 0.13467659, 0.3985426, 0.55855906, -1.6661444
952, 484202393, 0.7383002, 0.05862435, -0.6580994, 0.13560282, 0.23733097, 0.5982812, -1.8893948
953, 484219060, 0.7403394, 0.054756377, -0.65598935, 0.13632418, 0.08748163, 0.8825016, -1.8906441
954, 484235727, 0.7423698, 0.05091828, -0.65392274, 0.13669893, -0.042623922, 1.0612601, -1.5152245
955, 484252394, 0.7446734, 0.046845254, -0.651569, 0.13686514, 0.17864273, 1.270467, -0.78264046
956, 484269061, 0.7472299, 0.04174924, -0.6490602, 0.13650006, 0.22173022, 1.5444177, -0.72465897
957, 484285728, 0.7498776, 0.035699155, -0.646522, 0.1357409, 0.027364245, 1.8348697, -1.0256166
958, 484302395, 0.7519321, 0.02999086, -0.64454013, 0.13518065, -0.16588238, 1.5310823, -0.8358345
959, 484319062, 0.75331104, 0.025037006, -0.64323485, 0.1347281, 0.32064363, 0.8381099, -0.16485882
960, 484335729, 0.75432646, 0.021042585, -0.64220667, 0.13463409, 0.9173146, 0.4081069, 0.8978491
961, 484352396, 0.75477326, 0.017722178, -0.6417215, 0.13492122, 1.6288015, 0.4802144, 2.1817474
962, 484369063, 0.7549357, 0.014019933, -0.64159673, 0.13504139, 2.4170341, 0.86354613, 2.552084
963, 484385730, 0.7547511, 0.01047904, -0.64186525, 0.13511881, 2.3223643, 1.749501, 1.6706018
964, 484402397, 0.7540166, 0.007731937, -0.64273906, 0.13525082, 1.7892516, 1.845152, 0.6600132
965, 484419064, 0.7519369, 0.007429082, -0.64529663, 0.13466632, 1.0679909, 0.13936047, 0.85861397
966, 484435731, 0.7461562, 0.012656454, -0.6525746, 0.13131733, -0.93941826, -3.289804, 1.8023996
967, 484452398, 0.74058425, 0.022562921, -0.65944636, 0.12713587, -0.53037256, -1.9371915, 1.833806
968, 484469065, 0.73743206, 0.032328814, -0.6632748, 0.12337851, -2.3715436, 0.7413337, 0.0029239655
969, 484485732, 0.73688674, 0.039619904, -0.664465, 0.11799003, -2.9691322, 0.99018127, -0.14323616
970, 484502399, 0.7369837, 0.046028413, -0.66502434, 0.11174093, -3.1601899, -1.0195683, 0.112155914
971, 484519066, 0.73716664, 0.05245267, -0.66543037, 0.10508907, -1.2772388, -1.832389, 3.407958
972, 484535733, 0.7387228, 0.058535002, -0.66405576, 0.09949519, 0.12912522, -2.3518145, 4.4088554
973, 484552400, 0.7404462, 0.06378614, -0.6619445, 0.09750484, -0.12917708, -2.4039416, 1.9217539
974, 484569067, 0.7415397, 0.06872927, -0.6600637, 0.09858017, 0.54680747, -2.8058808, 0.42133617
975, 484585734, 0.74209535, 0.07330645, -0.6585826, 0.10097789, 0.076343976, -2.1059086, -0.17941093
976, 484602401, 0.74190176, 0.077358246, -0.65792316, 0.10364151, -0.3636502, -0.24483536, -0.9424219
977, 484619068, 0.7412493, 0.080161706, -0.65787756, 0.10643141, -0.45724246, 0.66314214, -1.8280835
978, 484635735, 0.740269, 0.08237076, -0.6581826, 0.1096338, -0.56600565, 0.1326556, -2.181024
979, 484652402, 0.73894566, 0.08421758, -0.65897405, 0.11237011, -0.3631511, -0.43190944, -1.7737474
980, 484669069, 0.7377759, 0.08629253, -0.6596732, 0.11436188, 0.24369797, -0.5861821, -1.2463923
981, 484685736, 0.7372369, 0.089110404, -0.6596552, 0.11577149, 0.58288556, -0.4945442, -1.4008713
982, 484702403, 0.7372007, 0.092606485, -0.65904987, 0.1167035, 0.3928942, -0.3897795, -1.958549
983, 484719070, 0.73767513, 0.0962937, -0.6579211, 0.11708911, -0.015553596, -0.05572759, -2.1080203
984, 484735737, 0.7387232, 0.09959124, -0.65625834, 0.11705364, -0.19875778, 0.36038503, -1.7395277
985, 484752404, 0.740224, 0.10223381, -0.6541863, 0.11689305, -0.082193315, 0.5748364, -1.3130913
986, 484769071, 0.74218804, 0.10441374, -0.6516387, 0.11674257, 0.36249688, 0.54796886, -1.075964
987, 484785738, 0.74464756, 0.10690629, -0.6484622, 0.11651197, 0.7460335, 0.20625646, -0.9657011
988, 484802405, 0.74718225, 0.110249154, -0.6450725, 0.11598429, 0.90877193, -0.2733677, -0.90302086
989, 484819072, 0.7495374, 0.11467405, -0.64171183, 0.11513813, 1.0621591, -0.86718833, -0.61213684
990, 484835739, 0.75152534, 0.11988849, -0.6386592, 0.11383226, 1.1757872, -1.1318231, -0.059090614
991, 484852406, 0.7528631, 0.12528309, -0.63635796, 0.11205778, 1.1293305, -0.9877878, 0.31293774
992, 484869073, 0.7535686, 0.13019463, -0.63483703, 0.11033061, 1.3081503, -0.31737176, 0.7276602
993, 484885740, 0.75373554, 0.1345865, -0.6338262, 0.10972907, 1.5817417, 0.5197141, 1.1515255
994, 484902407, 0.7532219, 0.13847685, -0.6334068, 0.11083253, 2.1726804, 1.1487113, 1.4664936
995, 484919074, 0.7525101, 0.14119981, -0.6333247, 0.11268555, 2.5301447, 1.0801215, 1.4743242
996, 484935741, 0.75133336, 0.14276123, -0.63404924, 0.1144806, 1.4018607, -0.042152084, 1.126257
997, 484952408, 0.74874383, 0.14212196, -0.6369523, 0.116116, 0.6801307, -0.090017945, 2.7946396
998, 484969075, 0.7425061, 0.13913417, -0.6441481, 0.12002772, -2.9936032, 3.0674963, 3.776287
999, 484985742, 0.7374355, 0.13093984, -0.6510214, 0.12337635, -1.4236921, 1.5757723, 2.020193
1000, 485002409, 0.7347076, 0.12264283, -0.65536684, 0.12515911, -0.8048263, -2.744719, -0.39519787
1001, 485019076, 0.73204756, 0.11612232, -0.65886307, 0.12856297, 0.36350626, -3.2832708, 0.774663
1002, 485035743, 0.7298953, 0.11160241, -0.66094726, 0.13398999, 0.23846866, -2.63683, 0.7139244
1003, 485052410, 0.7281399, 0.107449815, -0.66244346, 0.13943687, -1.0897629, -0.92335147, 2.0939064
1004, 485069077, 0.72786045, 0.10385452, -0.6621757, 0.14478806, -2.1285455, 1.122544, 2.369111
1005, 485085744, 0.7283204, 0.100804806, -0.6612619, 0.14875238, -2.4757113, 2.3783512, 1.8386011
1006, 485102411, 0.7298792, 0.09702811, -0.6598344, 0.14995834, -1.9625126, 2.6360607, 0.8104801
1007, 485119078, 0.7316319, 0.093296856, -0.6586422, 0.14902407, -1.5763953, 1.719339, -0.38132763
1008, 485135745, 0.7324759, 0.090205535, -0.6585015, 0.14739384, -0.90235066, 0.42649814, -1.0505943
1009, 485152412, 0.7325843, 0.08816399, -0.65897226, 0.14598039, -0.62855685, -0.16712478, -1.5902176
1010, 485169079, 0.73249435, 0.08694737, -0.6595111, 0.14472166, -0.6874885, 0.07870154, -1.7436333
1011, 485185746, 0.7324364, 0.085350946, -0.66011995, 0.14318103, -0.87012655, 0.6957687, -1.60637
1012, 485202413, 0.7324651, 0.082857296, -0.6607161, 0.14174148, -0.58373517, 1.2332726, -1.4777851
1013, 485219080, 0.7328363, 0.07919529, -0.6608868, 0.1411193, -0.24141411, 1.407198, -1.1922741
1014, 485235747, 0.73389727, 0.07480189, -0.66014296, 0.14148447, -0.08806276, 1.0781925, -1.0501165
1015, 485252414, 0.7357561, 0.07019324, -0.6584711, 0.14198172, 0.29890254, 0.58994436, -1.2988081
1016, 485269081, 0.7382093, 0.065921724, -0.6561168, 0.14219478, 0.14638758, 0.3139301, -1.9794016
1017, 485285748, 0.74049723, 0.062562376, -0.65388334, 0.14210396, -0.14007981, 0.261665, -2.4358344
1018, 485302415, 0.742372, 0.059730757, -0.6521286, 0.14160344, -0.049873117, 0.56429076, -2.0470996
1019, 485319082, 0.74415874, 0.05640203, -0.6505909, 0.14065921, 0.009261482, 1.0492632, -1.5178032
1020, 485335749, 0.74615777, 0.05156116, -0.64894783, 0.13951361, -0.09735017, 1.5326858, -1.3210564
1021, 485352416, 0.7479869, 0.045958698, -0.64733964, 0.13914615, -0.020102309, 1.770388, -0.8258791
1022, 485369083, 0.7490106, 0.039831966, -0.64651155, 0.13937843, 0.29344255, 1.7922771, 0.38883018
1023, 485385750, 0.7500265, 0.033656992, -0.64556277, 0.13994004, 0.854925, 1.5763623, 1.4859514
1024, 485402417, 0.75099605, 0.028557133, -0.644511, 0.14071935, 0.99285436, 1.1442605, 2.3597908
1025, 485419084, 0.7516105, 0.023813784, -0.64402354, 0.1405535, 1.6232338, 1.1662441, 2.6063414
1026, 485435751, 0.75220025, 0.019403659, -0.6437376, 0.13938148, 2.1721172, 1.5319606, 1.9085293
1027, 485452418, 0.7521068, 0.01603416, -0.6442745, 0.13782506, 2.2476974, 2.0324972, 1.0637798
1028, 485469085, 0.751424, 0.013334636, -0.6455237, 0.13597892, 2.6577258, 2.1219618, 0.18856335
1029, 485485752, 0.74942136, 0.011911642, -0.6482917, 0.1339803, 1.086606, 1.4452215, -0.45991707
1030, 485502419, 0.746176, 0.014329884, -0.65279514, 0.12992969, -0.6828437, -1.3723562, 1.8996029
1031, 485519086, 0.74030113, 0.021928795, -0.6602819, 0.12453235, -1.4980513, -2.0794845, 1.4860344
1032, 485535753, 0.7368212, 0.030990578, -0.66474855, 0.119374946, -2.8200266, -1.0470525, -0.4936657
1033, 485552420, 0.73555434, 0.03930378, -0.6668445, 0.112873495, -3.5248697, -1.8862513, -0.09207535
1034, 485569087, 0.7350715, 0.04652046, -0.6681689, 0.10518082, -2.6257212, -3.626462, 0.30697155
1035, 485585754, 0.73597986, 0.053006846, -0.6677195, 0.09839552, -1.3605869, -1.6211398, 1.9054317
1036, 485602421, 0.73739135, 0.058266938, -0.6664573, 0.09327704, -0.24731039, 0.22347523, 3.2385979
1037, 485619088, 0.73826826, 0.061170936, -0.6656143, 0.09045815, -0.79101324, 0.54760504, 1.9275303
1038, 485635755, 0.73805046, 0.06402551, -0.66565514, 0.08995873, 0.11807206, -1.6462528, 1.1859865
1039, 485652422, 0.73791444, 0.06728442, -0.6654152, 0.09047027, 0.6642765, -3.7914243, 0.5582342
1040, 485669089, 0.73779327, 0.071730725, -0.66493315, 0.09157942, 0.63647145, -3.7236793, -0.41221142
1041, 485685756, 0.737115, 0.076933175, -0.6649232, 0.092880905, 0.5812298, -2.3826647, -0.9314213
1042, 485702423, 0.73623246, 0.08176212, -0.6651246, 0.09430279, 0.18611209, -0.68239474, -0.8582201
1043, 485719090, 0.73518664, 0.08612807, -0.6654338, 0.09637152, -0.27627096, 0.625742, -0.6756315
1044, 485735757, 0.73423314, 0.08972724, -0.6656695, 0.09870144, -0.78785187, 1.2086693, -0.637763
1045, 485752424, 0.73408186, 0.092280716, -0.6651999, 0.10062067, -0.72635275, 0.90628594, -0.8911009
1046, 485769091, 0.7351276, 0.09417133, -0.66359615, 0.1018157, -0.07058629, 0.12405573, -1.1526613
1047, 485785758, 0.737173, 0.09618572, -0.6609192, 0.10255426, 0.34282684, -0.58205175, -1.422245
1048, 485802425, 0.73957205, 0.09862258, -0.6578117, 0.102944575, 0.21525773, -0.81667525, -1.8305635
1049, 485819092, 0.7420445, 0.101083204, -0.65464365, 0.10295923, 0.04030162, -0.97297114, -2.1987977
1050, 485835759, 0.7444573, 0.10301755, -0.6515607, 0.10318217, 0.14802392, -0.8852654, -2.4199495
1051, 485852426, 0.74655336, 0.104962245, -0.64871085, 0.10403093, 0.4987714, -0.40063897, -2.2736979
1052, 485869093, 0.7486333, 0.10765653, -0.6456679, 0.1052529, 0.9225732, -0.17246774, -1.5899458
1053, 485885760, 0.7506532, 0.11108112, -0.64259166, 0.10613184, 1.1109475, -0.3435879, -0.9444542
1054, 485902427, 0.7524592, 0.11530265, -0.6396952, 0.10633557, 1.3671005, -0.28704837, -0.18293285
1055, 485919094, 0.7541747, 0.120156474, -0.6368656, 0.105793044, 1.4426496, -0.33000717, 0.7465887
1056, 485935761, 0.755635, 0.12446573, -0.6345169, 0.10449597, 1.1411879, -0.031165306, 1.2619848
1057, 485952428, 0.75637144, 0.12742262, -0.63328975, 0.103037134, 1.0165334, 0.53384906, 1.402256
1058, 485969095, 0.7559903, 0.12992409, -0.6333426, 0.10238325, 1.9346986, 0.9999778, 1.2187004
1059, 485985762, 0.755522, 0.13233605, -0.6334074, 0.102351174, 2.9902174, 0.67756486, 1.0016947
1060, 486002429, 0.75447977, 0.13472925, -0.6340976, 0.1026444, 3.239057, -0.0012870993, 0.7450037
1061, 486019096, 0.7521032, 0.13644077, -0.63645047, 0.1032598, 1.0569208, -1.1895026, 0.36890602
1062, 486035763, 0.74821234, 0.13520949, -0.64094836, 0.10530549, 0.2874904, 0.39828634, 3.0524044
1063, 486052430, 0.73997515, 0.12999457, -0.65083414, 0.10936244, -2.5002763, 1.9191616, 2.9874878
1064, 486069097, 0.7350845, 0.12098846, -0.65742767, 0.113175005, -1.2901896, -0.5610209, 0.43181705
1065, 486085764, 0.7318263, 0.11316642, -0.6617495, 0.11712544, -1.0519503, -3.224245, -0.05638981
1066, 486102431, 0.72949696, 0.10773714, -0.66405964, 0.123527706, -1.1488526, -1.5736892, 1.1582756
1067, 486119098, 0.72788155, 0.103878595, -0.6652485, 0.12980393, -1.3474098, -1.2067853, 1.98244
1068, 486135765, 0.7272176, 0.09992215, -0.6655363, 0.13505052, -1.7240409, 1.0980198, 3.0355587
1069, 486152432, 0.7274701, 0.09632612, -0.6650621, 0.13859308, -2.5853386, 1.8382739, 1.6662912
1070, 486169099, 0.7284529, 0.092508614, -0.66436785, 0.13935916, -2.0678632, 2.5742753, 1.2186327
1071, 486185766, 0.729893, 0.0883065, -0.6636418, 0.13800278, -1.7182478, 2.5664628, 0.38919258
1072, 486202433, 0.73078084, 0.08443725, -0.6636479, 0.1356774, -1.046409, 1.2523319, -0.59858704
1073, 486219100, 0.7307038, 0.08123841, -0.6646908, 0.13291208, -0.38460746, -0.09558123, -1.5501518
1074, 486235767, 0.7300579, 0.079485364, -0.66606724, 0.13061066, -0.16836716, -0.7011292, -2.0476575
1075, 486252434, 0.7292587, 0.077978216, -0.6675742, 0.12826815, -0.517945, -0.6123123, -1.8592839
1076, 486269101, 0.72844905, 0.07549907, -0.66919845, 0.12586643, -0.38017005, 0.2202718, -1.532032
1077, 486285768, 0.72795695, 0.07197492, -0.670312, 0.12484881, -0.28040057, 0.9868123, -0.82973194
1078, 486302435, 0.7283552, 0.06749604, -0.67025614, 0.12532625, -0.17647153, 1.4438568, -0.45531464
1079, 486319102, 0.72990507, 0.06218114, -0.66891104, 0.12624267, 0.025108105, 1.061698, -0.57285595
1080, 486335769, 0.73207116, 0.057105005, -0.666804, 0.12724108, 0.19437984, 0.5439566, -1.0959187
1081, 486352436, 0.7342423, 0.052833106, -0.66458434, 0.12818621, 0.15857373, 0.43168157, -1.8251162
1082, 486369103, 0.7361294, 0.04918992, -0.6626541, 0.12880486, -0.013377474, 0.60484207, -2.4190288
1083, 486385770, 0.73811924, 0.04553989, -0.6607046, 0.1287727, -0.19825599, 0.74190944, -1.9878631
1084, 486402437, 0.7403188, 0.04131074, -0.65860474, 0.12832978, -0.088346176, 0.85701054, -1.04772
1085, 486419104, 0.74252623, 0.03586359, -0.6565869, 0.12755129, 0.15916358, 1.2811074, -0.80839443
1086, 486435771, 0.7446788, 0.029560689, -0.65451527, 0.12726581, -0.05897121, 1.8635771, -0.24510956
1087, 486452438, 0.7464775, 0.022644754, -0.6525877, 0.1280427, -0.11877568, 2.1691945, 0.94858646
1088, 486469105, 0.74840003, 0.01514611, -0.6502936, 0.12958956, 0.3991508, 1.8299292, 1.952137
1089, 486485772, 0.7503205, 0.008160491, -0.6479519, 0.13083577, 1.0153254, 0.77673167, 2.0465708
1090, 486502439, 0.751844, 0.002417948, -0.64626575, 0.13066144, 2.1338584, 0.19541083, 1.1160336
1091, 486519106, 0.7525453, -0.0013956204, -0.645721, 0.12932493, 3.1168745, 0.50365335, 0.3206663
1092, 486535773, 0.7521236, -0.0037760101, -0.64658225, 0.127415, 3.1362426, 1.6206982, 0.34587002
1093, 486552440, 0.75047565, -0.0049130656, -0.6487597, 0.1260167, 1.4901086, 1.9761953, 0.07681656
1094, 486569107, 0.74720955, -0.0034245774, -0.65288156, 0.12417418, 0.5117861, -0.27574813, 1.1250162
1095, 486585774, 0.73969257, 0.0029532574, -0.6621132, 0.12024714, -0.49171734, -3.032754, 0.92005444
1096, 486602441, 0.7344717, 0.014002629, -0.66849005, 0.116117336, -0.9997042, -1.4043888, 0.9368973
1097, 486619108, 0.73237383, 0.024298098, -0.67126805, 0.11155462, -3.5601208, 0.4165097, 0.35380363
1098, 486635775, 0.7320341, 0.030826457, -0.6724405, 0.10491237, -3.2327173, -1.0819132, 0.6748133
1099, 486652442, 0.7326572, 0.035918437, -0.67239845, 0.09904878, -2.900327, -1.3817616, 2.0922632
1100, 486669109, 0.73304915, 0.041132104, -0.67241526, 0.09387227, -0.8542446, -1.476146, 4.445178
1101, 486685776, 0.73419607, 0.045140382, -0.67135316, 0.09061183, -0.65035653, -1.5627754, 3.0479736
1102, 486702443, 0.73504317, 0.049211156, -0.6701816, 0.09029659, -0.14852615, -2.6595626, 1.2383461
1103, 486719110, 0.7356583, 0.054020964, -0.668959, 0.09159422, 0.57335943, -3.4125762, 0.3916235
1104, 486735777, 0.73577774, 0.059604023, -0.66800946, 0.09406755, 0.29323292, -2.2254314, -0.39937496
1105, 486752444, 0.73491305, 0.06510231, -0.66804504, 0.09688773, 0.034247994, -0.7953289, -0.9634571
1106, 486769111, 0.73377955, 0.069998056, -0.6683544, 0.09988658, 0.07824384, -0.2965124, -0.93395615
1107, 486785778, 0.7326619, 0.07429235, -0.668635, 0.10306063, -0.25374934, 0.08027529, -0.7842722
1108, 486802445, 0.7315064, 0.07809125, -0.66895145, 0.10635434, -0.20186663, 0.36538014, -0.7290497
1109, 486819112, 0.7313167, 0.08172487, -0.66824454, 0.10933122, -0.035041332, 0.3720275, -0.9255476
1110, 486835779, 0.732424, 0.08524999, -0.6662095, 0.111620955, 6.705389E-6, 0.011440008, -1.5355549
1111, 486852446, 0.7343775, 0.08886097, -0.663328, 0.11312169, 0.0542267, -0.22365858, -2.0863752
1112, 486869113, 0.73682016, 0.0924748, -0.6600203, 0.11368716, 0.16281176, -0.18662041, -2.3334713
1113, 486885780, 0.7393266, 0.09608409, -0.6567174, 0.113549024, 0.059748366, 0.006345924, -2.516183
1114, 486902447, 0.74170417, 0.09973447, -0.6535664, 0.11307615, 0.15767431, 0.02330508, -2.506886
1115, 486919114, 0.7440466, 0.103309676, -0.6504172, 0.11263346, 0.40083784, -0.0938979, -2.2061825
1116, 486935781, 0.74628496, 0.10734748, -0.64721304, 0.11250542, 0.75311995, -0.3667443, -1.8509979
1117, 486952448, 0.74845874, 0.11199099, -0.6438915, 0.112598866, 0.9107364, -0.74453074, -1.5093184
1118, 486969115, 0.75031805, 0.116906315, -0.64086556, 0.11249076, 1.1266743, -1.0244313, -0.8190336
1119, 486985782, 0.75208235, 0.122184634, -0.6379289, 0.11178886, 1.2572018, -1.0370909, 0.5006943
1120, 487002449, 0.75405276, 0.12750363, -0.63476723, 0.11056715, 1.2667596, -0.58352757, 1.5653172
1121, 487019116, 0.7557684, 0.13207188, -0.63193315, 0.10972187, 1.2477558, 0.17734446, 1.8986311
1122, 487035783, 0.75649136, 0.13556385, -0.63027394, 0.11002298, 1.4624466, 1.0048033, 1.4546747
1123, 487052450, 0.7562379, 0.13859534, -0.62966824, 0.111447856, 2.4685867, 1.0987984, 1.1864567
1124, 487069117, 0.7556982, 0.14088996, -0.62951046, 0.113109976, 2.8584013, 0.5425625, 1.3291607
1125, 487085784, 0.75425303, 0.14259388, -0.63055736, 0.11477673, 1.9076755, 0.16254298, 1.3968267
1126, 487102451, 0.7518005, 0.14214586, -0.6331375, 0.117194116, 1.0003693, 0.64543915, 3.5600128
1127, 487119118, 0.74484134, 0.13849849, -0.64131457, 0.12145908, -3.083799, 3.307198, 3.8224592
1128, 487135785, 0.7408369, 0.12947011, -0.64722383, 0.12452427, -0.73242784, 0.99594176, 1.9835329
1129, 487152452, 0.7382321, 0.12160461, -0.6514822, 0.12571256, -0.4678685, -2.4974594, -0.804327
1130, 487169119, 0.7351371, 0.1160359, -0.65553606, 0.12801768, 0.1508775, -3.1022122, -0.61381435
1131, 487185786, 0.73259795, 0.11191717, -0.6583098, 0.13194731, -0.7906588, -1.8771331, -0.75755405
1132, 487202453, 0.73004645, 0.10791527, -0.66091853, 0.13630961, -1.0755985, -0.64986926, 1.1836243
1133, 487219120, 0.72918814, 0.10402919, -0.66143906, 0.14130816, -2.0935323, 1.0843216, 2.3184147
1134, 487235787, 0.72896284, 0.10034011, -0.66146964, 0.14494836, -2.8412352, 2.3456361, 1.7435589
1135, 487252454, 0.730092, 0.09608506, -0.6605814, 0.1461934, -2.5291193, 2.806449, 1.026411
1136, 487269121, 0.7315679, 0.091468334, -0.6597783, 0.14540052, -2.20683, 2.3193314, -0.15778732
1137, 487285788, 0.7323507, 0.08721635, -0.65992695, 0.14338538, -1.1257453, 0.5540935, -1.1376429
1138, 487302455, 0.7317872, 0.0837999, -0.6615426, 0.14083193, -0.4112482, -0.7172892, -2.1193895
1139, 487319122, 0.7303724, 0.08192292, -0.66380465, 0.13861945, -0.29645976, -1.0852547, -2.3558407
1140, 487335789, 0.72877437, 0.080767885, -0.6660948, 0.13670833, -0.85733736, -0.69917, -1.7060556
1141, 487352456, 0.7273773, 0.079003185, -0.66813046, 0.13523835, -0.5419228, 0.44396815, -0.6456518
1142, 487369123, 0.72686356, 0.07607193, -0.6690587, 0.13509221, -0.45685154, 1.3806746, -0.01168251
1143, 487385790, 0.7271122, 0.07198484, -0.6690042, 0.1362586, -0.7111194, 1.5271521, -0.08532143
1144, 487402457, 0.7284314, 0.066893265, -0.66788036, 0.1373164, -0.49534807, 0.975719, -0.22157955
1145, 487419124, 0.73068154, 0.06198941, -0.66580963, 0.13771887, -0.297557, 0.38847664, -0.8120184
1146, 487435791, 0.7330183, 0.058007535, -0.6636802, 0.13731413, -0.19024774, 0.43975136, -1.9317613
1147, 487452458, 0.73491466, 0.05493469, -0.66206855, 0.1362161, -0.20823361, 0.6766103, -2.5958824
1148, 487469125, 0.7368394, 0.051576972, -0.66054523, 0.13451552, -0.29584265, 0.6597769, -1.8589711
1149, 487485792, 0.73936844, 0.046754, -0.65848273, 0.1324984, -0.07157242, 0.7648754, -1.0800505
1150, 487502459, 0.74222827, 0.04067597, -0.6559832, 0.13090362, 0.40461254, 1.1560296, -0.83586884
1151, 487519126, 0.7446631, 0.033984553, -0.6537388, 0.13020867, 0.5880452, 1.818273, -0.15942383
1152, 487535793, 0.7464872, 0.026867058, -0.6519949, 0.13017118, 0.48689482, 1.8207095, 0.9806633
1153, 487552460, 0.7478313, 0.019976612, -0.6506325, 0.13051422, 0.90526545, 0.8486946, 1.7416801
1154, 487569127, 0.74923325, 0.013990618, -0.6492065, 0.130352, 1.7199506, -0.11288642, 1.8211231
1155, 487585794, 0.7506456, 0.009728417, -0.6479284, 0.12896694, 2.5958245, -0.15800145, 1.4163237
1156, 487602461, 0.75145817, 0.006901048, -0.6474656, 0.1267228, 2.79319, 1.2110556, 0.85813904
1157, 487619128, 0.7513203, 0.004232824, -0.6480923, 0.1244321, 2.323705, 2.5516052, 0.38993645
1158, 487635795, 0.74946314, 0.002140712, -0.6506254, 0.12245062, 1.1058308, 2.2930515, -0.22545338
1159, 487652462, 0.74475, 0.0044166297, -0.65667737, 0.11878383, -0.59831244, -2.060296, 1.826868
1160, 487669129, 0.73763585, 0.0119163245, -0.66545284, 0.1137144, 0.3263003, -3.1684082, 1.994174
1161, 487685796, 0.73306084, 0.022729732, -0.67076576, 0.11038832, -2.0691636, -0.5218551, 0.27028656
1162, 487702463, 0.731239, 0.031637564, -0.67305416, 0.106272995, -3.3284483, 0.38760543, 0.12433243
1163, 487719130, 0.73046833, 0.03741683, -0.6745201, 0.1002292, -3.2427359, -1.0962006, -0.790822
1164, 487735797, 0.73039913, 0.043114312, -0.6750905, 0.09443648, -2.4069052, -2.165411, 1.5647497
1165, 487752464, 0.7308285, 0.049009364, -0.6749986, 0.08872326, -0.90339017, -1.6697165, 4.3308134
1166, 487769131, 0.7322099, 0.053766046, -0.67358744, 0.08523509, -1.082176, -1.4260814, 2.9957724
1167, 487785798, 0.7328345, 0.058147985, -0.67259604, 0.08481765, -0.26228753, -2.2979853, 1.187151
1168, 487802465, 0.73307365, 0.06271547, -0.6717248, 0.086386025, 0.10152227, -3.1608636, 0.38280964
1169, 487819132, 0.7328712, 0.0677378, -0.6711096, 0.08905244, 0.34999672, -2.357083, -0.31026554
1170, 487835799, 0.7320004, 0.07265411, -0.67111284, 0.09225737, 0.1627438, -1.138997, -1.2115259
1171, 487852466, 0.73083156, 0.07675543, -0.67145056, 0.09568117, -0.13612565, -0.35934126, -1.3934708
1172, 487869133, 0.72933084, 0.08020094, -0.6721755, 0.09915343, -0.11003811, 0.037046544, -0.80815697
1173, 487885800, 0.7278947, 0.083665, -0.672802, 0.10253828, 0.30985153, -0.061351232, -0.43535042
1174, 487902467, 0.7272093, 0.08753923, -0.67260194, 0.105438575, 0.5476774, -0.20826736, -0.7516613
1175, 487919134, 0.72756106, 0.091494195, -0.6713818, 0.10741161, 0.42903626, -0.30550897, -1.4308529
1176, 487935801, 0.728804, 0.09524856, -0.66928107, 0.10882308, 0.20195602, -0.19594844, -1.6561108
1177, 487952468, 0.73055273, 0.09928848, -0.6664944, 0.11057481, 0.31756452, 0.07050063, -1.8083258
1178, 487969135, 0.732558, 0.103361785, -0.6633751, 0.11231919, 0.10380612, 0.05545133, -2.233923
1179, 487985802, 0.7345753, 0.10673359, -0.6604621, 0.11315477, -0.0921564, -0.07866069, -2.6309142
1180, 488002469, 0.7365816, 0.10977939, -0.6576969, 0.11330424, 0.29235137, -0.1344018, -2.4570775
1181, 488019136, 0.73871905, 0.11355232, -0.65465975, 0.11325907, 0.48638698, -0.40152243, -1.6504622
1182, 488035803, 0.7408474, 0.11844885, -0.6514103, 0.11307798, 0.639285, -0.521281, -0.8756428
1183, 488052470, 0.7427551, 0.12425885, -0.6482975, 0.11221443, 0.94094753, -0.8476526, -0.551713
1184, 488069137, 0.7447886, 0.13008194, -0.6451035, 0.1105319, 1.0343723, -1.1140971, 0.3609619
1185, 488085804, 0.74683607, 0.13492544, -0.6420306, 0.10878747, 1.0612735, -0.5524249, 1.3860397
1186, 488102471, 0.7480757, 0.1381965, -0.64008164, 0.1076431, 0.9411067, 0.42216277, 1.4505682
1187, 488119138, 0.747959, 0.14062704, -0.6397383, 0.10734694, 1.8859389, 1.1156425, 1.2829542
1188, 488135805, 0.7475123, 0.14295907, -0.6396904, 0.10766317, 2.6907938, 0.9816754, 1.4621706
1189, 488152472, 0.7467682, 0.14505756, -0.64003366, 0.10798032, 3.4117277, 0.5831737, 2.0033665
1190, 488169139, 0.74554783, 0.1471198, -0.64084643, 0.10879846, 2.549154, -0.115146495, 1.6746788
1191, 488185806, 0.7435434, 0.14688897, -0.6429648, 0.110318854, 1.6258959, -0.470877, 2.8221264
1192, 488202473, 0.7377103, 0.14349791, -0.6496982, 0.11441721, -3.1295166, 2.7577512, 3.1104355
1193, 488219140, 0.7325202, 0.13456872, -0.65669936, 0.1185689, -1.6681353, 1.4303021, 1.7752419
1194, 488235807, 0.72940934, 0.12529477, -0.66150814, 0.12114905, -1.9009612, -2.575609, -1.0421906
1195, 488252474, 0.72630924, 0.11768156, -0.665578, 0.12505516, -1.5841529, -2.3124151, 0.46108818
1196, 488269141, 0.7241105, 0.111697964, -0.6678968, 0.13079971, -1.4330909, -1.0744776, 0.9130182
1197, 488285808, 0.7224734, 0.10599142, -0.66949177, 0.13632993, -1.5596113, -0.4096796, 2.0059185
