sep=,
DeviceTag:,DEMO6_1,,,,,,,,,,,,,,,,,
FirmwareVersion:,1.9.1,,,,,,,,,,,,,,,,,
AppVersion:,2023.6.1,,,,,,,,,,,,,,,,,
SyncStatus:,Synced,,,,,,,,,,,,,,,,,
OutputRate:,60Hz,,,,,,,,,,,,,,,,,
FilterProfile:,General,,,,,,,,,,,,,,,,,
Measurement Mode:,Sensor fusion Mode - Complete (Quaternion),,,,,,,,,,,,,,,,,
StartTime:,2025-02-09 22:14:52.178 -0600,,,,,,,,,,,,,,,,,
 2025,,,,,,,,,,,,,,,,,,,

PacketCounter,SampleTimeFine,Quat_W,Quat_X,Quat_Y,Quat_Z,FreeAcc_X,FreeAcc_Y,FreeAcc_Z
1, 468368743, 0.27783108, -0.6543981, 0.3789628, 0.5924199, 0.047137316, 0.07380632, -0.020783424
2, 468385410, 0.27803713, -0.65394324, 0.37950245, 0.59248006, -0.06792849, -0.111789666, -0.052827835
3, 468402077, 0.2778797, -0.65373224, 0.37969214, 0.59266514, -0.033080924, -0.11428061, -0.11165714
4, 468418744, 0.2776433, -0.6536676, 0.3796898, 0.5928487, -0.011670282, 0.09330593, -0.04818344
5, 468435411, 0.27744263, -0.6536645, 0.3795691, 0.5930235, 0.09213908, 0.1794486, 0.008591652
6, 468452078, 0.27733308, -0.6536726, 0.37950516, 0.59310687, 0.06532021, 0.21324387, -0.01977253
7, 468468745, 0.2772537, -0.653674, 0.37950128, 0.5931447, -0.026381122, 0.14588165, -0.034677505
8, 468485412, 0.2771737, -0.65363824, 0.3795255, 0.5932059, -0.16550386, 0.08540899, -0.0036668777
9, 468502079, 0.2769367, -0.65368336, 0.37936723, 0.5933681, -0.20770903, 0.057639185, -0.02659893
10, 468518746, 0.2766985, -0.6537695, 0.37911874, 0.5935432, -0.16881117, 0.08390576, -0.058894157
11, 468535413, 0.27628615, -0.65396875, 0.37871072, 0.5937762, -0.08591123, 0.12818457, -0.057494164
12, 468552080, 0.27584225, -0.6542317, 0.37828356, 0.59396535, -0.046315685, 0.20877585, -0.041578293
13, 468568747, 0.2754662, -0.6544788, 0.37792325, 0.594097, 0.029651117, 0.19530919, -0.050209045
14, 468585414, 0.2751689, -0.6547249, 0.37759703, 0.594171, 0.08829834, 0.20790191, -0.04240799
15, 468602081, 0.27494884, -0.6549797, 0.3773039, 0.594178, 0.08386195, 0.19713004, -0.066370964
16, 468618748, 0.27484685, -0.65514696, 0.37708372, 0.5941808, -0.03533226, 0.14307712, -0.007633209
17, 468635415, 0.27466378, -0.6553654, 0.376787, 0.5942126, -0.10249499, 0.11819521, -0.014735222
18, 468652082, 0.27449483, -0.6555425, 0.37648696, 0.59428567, -0.13074502, 0.16646262, 0.0074920654
19, 468668749, 0.27438366, -0.65563846, 0.3763028, 0.59434783, -0.12809527, 0.18251923, 0.0257864
20, 468685416, 0.2742018, -0.6556928, 0.37608874, 0.5945073, -0.055289954, 0.13452731, -0.018876076
21, 468702083, 0.2740019, -0.6557549, 0.37590763, 0.5946454, -0.026974326, 0.14361535, -0.04788494
22, 468718750, 0.27370185, -0.65585566, 0.37562186, 0.5948529, 0.010116196, 0.1232969, -0.059711456
23, 468735417, 0.27354228, -0.6558996, 0.3754992, 0.5949555, -0.009779809, 0.1401035, -0.08787918
24, 468752084, 0.27334055, -0.6559969, 0.37528223, 0.5950777, 0.05908143, 0.16719364, -0.050992012
25, 468768751, 0.2732365, -0.6560459, 0.37513497, 0.5951643, 0.12821507, 0.14272644, -0.018375397
26, 468785418, 0.27318743, -0.6560885, 0.3750833, 0.5951726, 0.06536871, 0.16837734, -0.01606369
27, 468802085, 0.2731626, -0.65609515, 0.37509727, 0.59516776, 0.036646403, 0.10627393, -0.008782387
28, 468818752, 0.27317137, -0.6560645, 0.37518248, 0.595144, 2.796147E-4, 0.106680386, -0.018073082
29, 468835419, 0.27324823, -0.65599453, 0.37534076, 0.595086, -0.033680275, 0.12497883, -0.07252884
30, 468852086, 0.2733691, -0.65591204, 0.37554556, 0.594992, -0.038041122, 0.15351562, -0.04475975
31, 468868753, 0.27347627, -0.65582776, 0.37571654, 0.5949277, -0.024603635, 0.15685178, -0.015569687
32, 468885420, 0.27358732, -0.6557084, 0.37588334, 0.59490293, -0.053653277, 0.12425689, -0.008525848
33, 468902087, 0.273778, -0.6555544, 0.37611192, 0.5948404, -0.03440021, 0.13714106, -0.031121254
34, 468918754, 0.27400288, -0.65537673, 0.3763466, 0.5947841, 0.019939143, 0.14299285, -0.038718224
35, 468935421, 0.27422065, -0.65521634, 0.37657833, 0.59471387, 0.042334136, 0.11963028, -0.059568405
36, 468952088, 0.2744544, -0.65508294, 0.37680584, 0.5946088, 0.06090773, 0.13545825, -0.023073196
37, 468968755, 0.27469918, -0.6549587, 0.3770466, 0.59448004, 0.061774287, 0.14098181, -0.04261303
38, 468985422, 0.27492905, -0.65486306, 0.37722883, 0.5943637, 0.06529808, 0.1274415, -0.056812286
39, 469002089, 0.27514067, -0.65477633, 0.37738103, 0.5942646, 0.014227158, 0.1261649, -0.065909386
40, 469018756, 0.27538475, -0.65467644, 0.37754261, 0.5941589, -0.0130165005, 0.1134402, -0.014033318
41, 469035423, 0.2756422, -0.6545321, 0.3777682, 0.5940551, -0.08002591, 0.12447626, 0.0067243576
42, 469052090, 0.27570716, -0.65444106, 0.37787008, 0.5940605, -0.13345188, 0.1471036, 0.008328438
43, 469068757, 0.2756923, -0.65432745, 0.37794498, 0.5941448, -0.1451957, 0.18691036, 0.0021505356
44, 469085424, 0.27566695, -0.65420717, 0.37808615, 0.59419924, -0.12480729, 0.17770688, -0.038963318
45, 469102091, 0.27562848, -0.65413004, 0.37822422, 0.5942142, -0.08440989, 0.14625649, -0.043042183
46, 469118758, 0.27561876, -0.6540793, 0.37836015, 0.594188, -0.09919695, 0.13386448, -0.011136055
47, 469135425, 0.27572557, -0.65401495, 0.37848693, 0.59412855, -0.04367488, 0.15494823, 0.017782211
48, 469152092, 0.27586448, -0.6539719, 0.37853342, 0.5940818, -0.03990019, 0.102220185, -0.0055933
49, 469168759, 0.27599582, -0.65398926, 0.3785186, 0.5940111, 0.016047783, 0.109727204, -0.05760479
50, 469185426, 0.27611285, -0.65400183, 0.3784612, 0.5939794, 0.15036611, 0.14861377, -0.09281731
51, 469202093, 0.2761317, -0.65397674, 0.3785398, 0.59394836, 0.1329055, 0.11447618, -0.089686394
52, 469218760, 0.27619848, -0.6538722, 0.37877214, 0.5938842, 0.19983724, 0.1405036, -0.113375664
53, 469235427, 0.27641734, -0.6537246, 0.37914532, 0.59370667, 0.24899857, 0.23353349, -0.02142334
54, 469252094, 0.27677453, -0.65355146, 0.37955022, 0.59347224, 0.13199234, 0.21790335, -0.032627106
55, 469268761, 0.27702755, -0.6534798, 0.37991297, 0.593201, 0.020633487, 0.05346765, -0.057326317
56, 469285428, 0.2772519, -0.6535772, 0.38010293, 0.59286696, -0.00934016, 0.07883883, -0.029723167
57, 469302095, 0.27731898, -0.65386826, 0.38001096, 0.5925735, 0.01753392, 0.09095256, -0.07891846
58, 469318762, 0.2772703, -0.6542485, 0.37976998, 0.59233105, -0.013616521, 0.16099806, -0.015960693
59, 469335429, 0.27734485, -0.65450406, 0.37969932, 0.592059, -0.044970583, 0.27713662, 0.009880066
60, 469352096, 0.2775878, -0.65458083, 0.3798488, 0.5917643, -0.07339942, 0.2455405, 0.05280018
61, 469368763, 0.27791005, -0.6544333, 0.38020188, 0.5915496, -0.18367344, 0.17081329, 0.0029268265
62, 469385430, 0.27812043, -0.6542095, 0.38057035, 0.5914611, -0.29817566, 0.12802978, 0.004003525
63, 469402097, 0.27830192, -0.65387046, 0.38104916, 0.5914424, -0.24473496, 0.06772443, 0.014169693
64, 469418764, 0.27808338, -0.65370905, 0.38117605, 0.5916419, -0.19228841, 0.10471492, 0.050980568
65, 469435431, 0.27789342, -0.65350586, 0.3813259, 0.591859, -0.14431415, 0.11831781, 0.038254738
66, 469452098, 0.27754965, -0.6534067, 0.38130316, 0.59214425, -0.11628228, 0.09916867, 0.014608383
67, 469468765, 0.27698395, -0.65350145, 0.38096142, 0.5925245, -0.09960743, 0.110671096, -0.056809425
68, 469485432, 0.27627972, -0.6537449, 0.3805021, 0.5928799, -0.094831854, 0.13878344, -0.07364845
69, 469502099, 0.27555177, -0.65402836, 0.37998492, 0.5932376, -0.17607759, 0.11188544, -0.09210682
70, 469518766, 0.27482554, -0.65435034, 0.37942246, 0.5935792, -0.14024019, 0.11044278, -0.04375267
71, 469535433, 0.274149, -0.6546687, 0.3787367, 0.59397894, -0.13155358, 0.17674041, -0.007326126
72, 469552100, 0.2735285, -0.65496796, 0.37804586, 0.59437495, -0.01665719, 0.13948315, -0.025501251
73, 469568767, 0.27290294, -0.65525824, 0.37739417, 0.59475654, 0.033102717, 0.18013166, -0.05042553
74, 469585434, 0.27224872, -0.65558106, 0.37683243, 0.59505683, 0.0940566, 0.1739504, -0.06525612
75, 469602101, 0.27158055, -0.6558985, 0.3762986, 0.59535, 0.06350059, 0.15620437, -0.05750084
76, 469618768, 0.27107936, -0.65610516, 0.3758918, 0.5956077, 0.05673988, 0.15487057, -0.031986237
77, 469635435, 0.27071363, -0.65627426, 0.37556747, 0.5957923, 0.05348665, 0.16598597, -0.00987339
78, 469652102, 0.27049804, -0.6563868, 0.37537462, 0.59588796, 0.051963076, 0.20327732, -0.018363953
79, 469668769, 0.2703136, -0.65645117, 0.3752727, 0.5959648, 0.08602265, 0.15197472, -0.03532791
80, 469685436, 0.27011627, -0.656526, 0.3752073, 0.5960129, 0.09709034, 0.14479393, -0.04021263
81, 469702103, 0.27009988, -0.6565191, 0.37525564, 0.5959976, 0.13723886, 0.15744644, -0.05760479
82, 469718770, 0.27023092, -0.6564608, 0.37544438, 0.59588367, 0.06364285, 0.16894071, -0.07013321
83, 469735437, 0.27044964, -0.6563659, 0.37571165, 0.5957205, 0.019810736, 0.1251905, -0.055887222
84, 469752104, 0.27056322, -0.65632993, 0.37587678, 0.5956043, 0.0024082405, 0.12550655, -0.0776968
85, 469768771, 0.27070498, -0.65626884, 0.37607753, 0.5954805, -0.0081013385, 0.14405176, -0.06133461
86, 469785438, 0.2708624, -0.6561926, 0.37634334, 0.59532493, 0.011702803, 0.111195125, -0.03338623
87, 469802105, 0.27100837, -0.656121, 0.37655526, 0.5952034, -0.04211715, 0.12258503, -0.021885872
88, 469818772, 0.27110747, -0.6560586, 0.37672818, 0.5951176, -0.08893067, 0.13580547, -0.03231716
89, 469835439, 0.27117085, -0.65602237, 0.3768627, 0.5950436, -0.14131473, 0.12243727, -0.04614544
90, 469852106, 0.27121916, -0.6560137, 0.37689888, 0.59500813, -0.1458916, 0.09720098, -0.036877632
91, 469868773, 0.27112958, -0.6561001, 0.37675962, 0.5950419, -0.11074821, 0.10187329, -0.03273487
92, 469885440, 0.27111304, -0.65615624, 0.37669536, 0.59502816, -0.08884942, 0.15946665, -0.034604073
93, 469902107, 0.27116203, -0.656177, 0.37670332, 0.5949779, -0.07788979, 0.17237085, -0.055918694
94, 469918774, 0.27125487, -0.6561623, 0.37675494, 0.5949191, -0.03634533, 0.20162657, -0.013805389
95, 469935441, 0.27135357, -0.656112, 0.37679726, 0.59490275, 0.018065657, 0.16613919, -0.0028476715
96, 469952108, 0.27149487, -0.6560152, 0.3768897, 0.5948865, 0.022675054, 0.17449288, -0.023711205
97, 469968775, 0.2716777, -0.6558729, 0.37704444, 0.59486204, 0.0486638, 0.13575752, -0.03769207
98, 469985442, 0.27193552, -0.65566534, 0.37729445, 0.5948144, 0.08522326, 0.18929614, -0.039369583
99, 470002109, 0.27229384, -0.65541553, 0.37766457, 0.59469104, 0.07925166, 0.15957975, -0.04838085
100, 470018776, 0.27273342, -0.6551409, 0.37813187, 0.59449506, 0.09278492, 0.111745976, -0.0423975
101, 470035443, 0.27319333, -0.65489995, 0.37858188, 0.59426296, 0.080938846, 0.119583905, -0.012989044
102, 470052110, 0.27375624, -0.6546125, 0.37908882, 0.5939973, 0.046195433, 0.12641625, -0.031225204
103, 470068777, 0.2742694, -0.6543923, 0.3795541, 0.59370613, 0.04029324, 0.11428754, -0.06916618
104, 470085444, 0.27485847, -0.6541655, 0.38008258, 0.5933454, 0.005873138, 0.13581665, -0.068514824
105, 470102111, 0.27548498, -0.65394455, 0.38062474, 0.59295064, -0.029594233, 0.110015646, -0.036613464
106, 470118778, 0.27600464, -0.653782, 0.3810524, 0.5926137, -0.06413503, 0.12719731, -0.04879856
107, 470135445, 0.2764417, -0.6536592, 0.38143238, 0.5923008, -0.10127048, 0.10410552, -0.010819435
108, 470152112, 0.27679184, -0.65360254, 0.3816907, 0.59203327, -0.10411099, 0.13726635, -0.015641212
109, 470168779, 0.2771284, -0.6535651, 0.38187838, 0.59179634, -0.09801244, 0.15155408, -0.029010773
110, 470185446, 0.27750444, -0.6535076, 0.3821096, 0.59153426, -0.10702806, 0.15005508, 0.008956909
111, 470202113, 0.27780506, -0.6534749, 0.38224038, 0.59134436, -0.16720982, 0.14143163, -0.015222549
112, 470218780, 0.2778902, -0.653528, 0.3821855, 0.59128124, -0.15896487, 0.08906298, -0.030838966
113, 470235447, 0.27779663, -0.65364003, 0.3819865, 0.5913302, -0.10200897, 0.105558574, -0.041923523
114, 470252114, 0.27765283, -0.653793, 0.38174602, 0.59138393, -0.05271162, 0.1286934, -0.037621498
115, 470268781, 0.27756274, -0.6539064, 0.38157636, 0.59141034, -0.048679445, 0.17588033, -0.032179832
116, 470285448, 0.2774456, -0.6540541, 0.3813405, 0.59145415, -0.022517366, 0.15470281, -0.013306618
117, 470302115, 0.2773637, -0.6541898, 0.3811244, 0.5914817, -0.043586142, 0.1477728, -0.025521278
118, 470318782, 0.27721208, -0.654369, 0.3808208, 0.5915499, 0.014427762, 0.13447243, -0.016851425
119, 470335449, 0.27707016, -0.6545573, 0.3805446, 0.591586, -4.4613186E-4, 0.13456173, -0.061592102
120, 470352116, 0.27698228, -0.6547307, 0.38032314, 0.5915776, 0.01321051, 0.14409143, -0.02895832
121, 470368783, 0.27692258, -0.6548681, 0.38011, 0.5915904, 0.014714082, 0.16628402, -0.0032844543
122, 470385450, 0.2769007, -0.6549405, 0.3799927, 0.59159595, -0.057436123, 0.1778858, -0.013064384
123, 470402117, 0.2768478, -0.6549874, 0.3799274, 0.5916106, -0.03557242, 0.14832488, -0.016313553
124, 470418784, 0.27682853, -0.65499896, 0.3799293, 0.59160554, -0.025274063, 0.14634399, -0.036398888
125, 470435451, 0.27673534, -0.6550516, 0.37984544, 0.59164476, 0.011380944, 0.12132283, -0.038449287
126, 470452118, 0.27665487, -0.6550959, 0.37979224, 0.59166765, -0.004752444, 0.15686195, -0.05786705
127, 470468785, 0.276619, -0.65511703, 0.379768, 0.5916765, 0.021008989, 0.15618907, -0.05160618
128, 470485452, 0.27669698, -0.65513223, 0.37982175, 0.59158874, 0.050680332, 0.15817878, -0.05068779
129, 470502119, 0.2767656, -0.65517837, 0.37985218, 0.591486, 0.0023262112, 0.13389365, -0.01968956
130, 470518786, 0.27684614, -0.65523803, 0.3798443, 0.5913873, -0.036435742, 0.14606002, -0.02304554
131, 470535453, 0.2768979, -0.6553072, 0.37982523, 0.59129864, -0.0583713, 0.15479647, -0.012185097
132, 470552120, 0.2769112, -0.6553606, 0.37979636, 0.5912518, -0.06633093, 0.13720722, -0.036408424
133, 470568787, 0.2769592, -0.65538263, 0.37984067, 0.59117615, -0.016774535, 0.08994709, -0.054556847
134, 470585454, 0.27706757, -0.6553585, 0.37993962, 0.591089, -0.008440408, 0.14345844, -0.032185555
135, 470602121, 0.27729926, -0.6552716, 0.38018262, 0.5909202, -0.011597752, 0.15196109, -0.07368374
136, 470618788, 0.27753198, -0.6551902, 0.38043824, 0.59073675, -0.05401895, 0.14298269, 0.025939941
137, 470635455, 0.2776911, -0.6551397, 0.38061112, 0.5906066, -0.11953015, 0.10425673, 0.030439377
138, 470652122, 0.27788797, -0.65508366, 0.38075766, 0.5904815, -0.087381385, 0.111818835, 0.0565691
139, 470668789, 0.27810928, -0.65505487, 0.38090867, 0.590312, 0.005753894, 0.08911674, 0.009695053
140, 470685456, 0.27847847, -0.6549867, 0.38111636, 0.5900795, 0.004060895, 0.1850229, -0.061095238
141, 470702123, 0.2789133, -0.65491927, 0.38132036, 0.5898171, 0.07649418, 0.16022985, -0.17019749
142, 470718790, 0.27938774, -0.654857, 0.38153172, 0.58952504, 0.10388011, 0.11469221, -0.15548801
143, 470735457, 0.27982557, -0.6548228, 0.38176063, 0.5892067, 0.0829014, 0.12194643, -0.117022514
144, 470752124, 0.28023583, -0.65481377, 0.38202968, 0.58884746, 0.09719707, 0.15745817, -0.010212898
145, 470768791, 0.2806086, -0.6548183, 0.38222045, 0.58854115, 0.08370706, 0.15240388, 0.043229103
146, 470785458, 0.2810391, -0.6548465, 0.38239583, 0.58819026, 0.0029488064, 0.21406595, 0.04486561
147, 470802125, 0.2815176, -0.6548561, 0.38251635, 0.5878723, -0.02172937, 0.14533047, -0.0283947
148, 470818792, 0.2818796, -0.654938, 0.38253102, 0.5875981, -0.14565445, 0.10148997, -0.09080505
149, 470835459, 0.28197783, -0.6551527, 0.3823338, 0.5874398, -0.20799345, 0.106138706, -0.033060074
150, 470852126, 0.28204435, -0.6553889, 0.38218763, 0.5872393, -0.21829133, 0.15567, -0.01783657
151, 470868793, 0.28201342, -0.6555777, 0.3820093, 0.5871597, -0.20260109, 0.21780466, 0.037433624
152, 470885460, 0.28205532, -0.6556485, 0.3819301, 0.58711207, -0.11921667, 0.23481813, 0.020568848
153, 470902127, 0.28216448, -0.6556596, 0.38190162, 0.5870657, -0.099661075, 0.18590556, -0.027736664
154, 470918794, 0.28217953, -0.65574676, 0.38181055, 0.5870203, -0.05437724, 0.13812575, -0.02859211
155, 470935461, 0.28217173, -0.65587425, 0.38175476, 0.586918, -0.06762742, 0.14125483, -0.06345558
156, 470952128, 0.2821273, -0.65599924, 0.3817264, 0.586818, -0.056430988, 0.15120405, -0.059864044
157, 470968795, 0.28206095, -0.6561027, 0.38166174, 0.5867762, -0.074769, 0.17874712, -0.041941643
158, 470985462, 0.28202203, -0.6561605, 0.38163042, 0.58675075, -0.10665468, 0.21612696, -0.005156517
159, 471002129, 0.28197345, -0.6561927, 0.38154396, 0.58679426, -0.07634945, 0.19649673, -0.0048065186
160, 471018796, 0.28172722, -0.65630245, 0.3813461, 0.58691835, -0.064404584, 0.13200508, 0.027176857
161, 471035463, 0.2814517, -0.65643376, 0.38120705, 0.586994, -0.05643434, 0.07994377, 0.03497219
162, 471052130, 0.28114668, -0.65669477, 0.38092026, 0.58703464, 0.18575011, 0.06387665, -0.13798141
163, 471068797, 0.2809103, -0.65692425, 0.380671, 0.58705264, -0.26775333, 0.18060082, -0.17490768
164, 471085464, 0.28032207, -0.65697014, 0.3804975, 0.58739483, -0.45452657, 0.19002278, -0.09022522
165, 471102131, 0.2797999, -0.6567511, 0.38046518, 0.58790946, -0.32170174, 0.053870086, -0.2000761
166, 471118798, 0.27989975, -0.65630454, 0.38095444, 0.5880438, 0.02118087, 0.21178657, -0.18354988
167, 471135465, 0.27938053, -0.65561944, 0.3815295, 0.58868176, -0.52853, 0.027148666, 0.03189087
168, 471152132, 0.27925664, -0.65469056, 0.38235787, 0.58923656, -0.46688068, 0.1543604, -0.071308136
169, 471168799, 0.2786322, -0.65330756, 0.38388285, 0.59007514, -0.9492972, 0.18643215, 0.76033497
170, 471185466, 0.27718255, -0.6519638, 0.38551506, 0.5911787, -0.67476887, 0.13188806, 0.665225
171, 471202133, 0.27602115, -0.6509147, 0.3871869, 0.5917852, -0.65605134, 0.14627425, -0.16935349
172, 471218800, 0.27570346, -0.650361, 0.38812584, 0.59192705, -1.3029948, 0.07811577, 0.0478611
173, 471235467, 0.27586278, -0.6505416, 0.3876274, 0.5919811, -1.5576309, 0.22845069, 0.12839508
174, 471252134, 0.27624682, -0.65086615, 0.3864476, 0.5922165, -2.5145435, 0.6914623, 0.4037609
175, 471268801, 0.27555686, -0.65135306, 0.38458064, 0.593217, -2.500847, 0.5519527, 0.5892668
176, 471285468, 0.2739407, -0.6513623, 0.38289204, 0.5950449, -1.6703284, 0.4769971, -0.2988224
177, 471302135, 0.27270418, -0.6501688, 0.38314933, 0.5967501, -0.45604512, 0.53241503, -0.5767784
178, 471318802, 0.27193072, -0.6482305, 0.3845901, 0.59828305, -0.18927647, 0.19015163, -0.54707813
179, 471335469, 0.270438, -0.6467042, 0.38519228, 0.600221, -0.24858256, -0.4624778, -0.46791553
180, 471352136, 0.26897123, -0.64562964, 0.38497502, 0.60217303, 0.8200867, 0.071643166, -0.40445042
181, 471368803, 0.26794848, -0.6446402, 0.38511178, 0.60359985, 1.4995233, 0.19049518, -0.4226179
182, 471385470, 0.26690328, -0.6435809, 0.38570255, 0.6048149, 1.1998115, 0.055200994, -0.27164078
183, 471402137, 0.2659184, -0.6424716, 0.38645768, 0.605945, 0.768998, -0.017615503, -0.03185463
184, 471418804, 0.26540035, -0.64137626, 0.38742048, 0.6067174, 0.9487914, -0.19625846, 0.048344612
185, 471435471, 0.265491, -0.640349, 0.38866565, 0.60696626, 0.7881151, -0.18645239, -0.038697243
186, 471452138, 0.26594993, -0.6393709, 0.3902182, 0.6068002, 0.2814645, -0.04568169, 0.116669655
187, 471468805, 0.26632097, -0.63839644, 0.39160618, 0.60676926, -0.595234, 0.25196627, 0.6285353
188, 471485472, 0.26609313, -0.6373195, 0.39252457, 0.60740757, -1.5382913, 0.19604075, 0.9584007
189, 471502139, 0.26476842, -0.6363727, 0.3925523, 0.6089594, -1.5958191, -0.14398146, 0.7540245
190, 471518806, 0.26294845, -0.6355852, 0.39164805, 0.6111487, -0.89476603, 0.12939869, 0.5745802
191, 471535473, 0.26161012, -0.6346678, 0.39081055, 0.61320907, 0.25379595, 0.12224884, 0.12187958
192, 471552140, 0.26068348, -0.6337634, 0.39040682, 0.6147942, 0.6468572, -0.05860029, -0.20562172
193, 471568807, 0.25989267, -0.63274443, 0.39043128, 0.6161615, 0.5935583, 0.050203692, -0.22672272
194, 471585474, 0.25922483, -0.6320632, 0.39043692, 0.61713773, 0.93952405, -0.09947444, -0.32603836
195, 471602141, 0.25862804, -0.6318446, 0.39017743, 0.6177757, 0.9458475, -0.06411905, -0.4688406
196, 471618808, 0.2582436, -0.63211143, 0.38965717, 0.61799186, 1.3025705, 0.09194295, -0.58215237
197, 471635475, 0.25811002, -0.6327705, 0.3891732, 0.6176781, 1.5847658, 0.044744834, -0.74594975
198, 471652142, 0.2583431, -0.63368964, 0.38888896, 0.61681676, 1.8568538, -0.23848519, -0.5768986
199, 471668809, 0.25919703, -0.6350401, 0.38870054, 0.6151863, 2.5865774, -0.34724972, -0.60598755
200, 471685476, 0.261265, -0.63712436, 0.38881692, 0.61207515, 3.5636623, -0.026908726, -0.8533344
201, 471702143, 0.2649247, -0.6401978, 0.38891143, 0.60721564, 4.742875, 0.09990403, -0.9423876
202, 471718810, 0.27057713, -0.64437747, 0.3883735, 0.6006105, 5.9280105, 0.57275844, -0.5962534
203, 471735477, 0.27727172, -0.64978105, 0.38636142, 0.5929848, 6.0357966, 0.8574462, -0.11272049
204, 471752144, 0.28349817, -0.6568251, 0.38210598, 0.58498365, 5.3983574, 1.2921937, 0.8956394
205, 471768811, 0.29007944, -0.66514826, 0.37642694, 0.5759648, 4.3422184, 1.6496322, 1.8469963
206, 471785478, 0.29964304, -0.673534, 0.37087896, 0.5648151, 3.659599, 0.6576218, 1.9306717
207, 471802145, 0.3104634, -0.683168, 0.3659874, 0.55040777, 1.9983511, -0.26365408, 1.3810425
208, 471818812, 0.31795633, -0.6941627, 0.3584462, 0.53717726, -0.52525955, -0.029717611, 1.2835579
209, 471835479, 0.32555875, -0.7044467, 0.3522413, 0.5231575, -3.991338, -0.52619356, 1.6499014
210, 471852146, 0.33243465, -0.7141023, 0.34600955, 0.509729, -6.780638, -1.3652811, 1.4221678
211, 471868813, 0.33704016, -0.7236638, 0.33905464, 0.49775276, -5.4136353, -2.2084975, 0.29343796
212, 471885480, 0.3404703, -0.7323248, 0.3348841, 0.4854219, -3.305519, -2.254974, -0.37416363
213, 471902147, 0.34372467, -0.73856604, 0.3335499, 0.47446725, -2.7923567, -1.8855231, -0.70901775
214, 471918814, 0.34815893, -0.74214494, 0.33427596, 0.4650454, -3.102113, -0.94049823, -1.3087635
215, 471935481, 0.3538559, -0.74366254, 0.3361395, 0.45690644, -3.8535435, 0.33489394, -1.6329412
216, 471952148, 0.36100376, -0.7432639, 0.34005085, 0.449001, -3.7067683, 0.917726, -1.726552
217, 471968815, 0.3673092, -0.7416177, 0.34580368, 0.442163, -3.240665, 0.2816516, -1.8388138
218, 471985482, 0.37028977, -0.7399451, 0.35130787, 0.43812177, -2.5737176, -0.34635007, -2.0191846
219, 472002149, 0.36996007, -0.738592, 0.3548729, 0.43781042, -2.4067996, -0.25754315, -2.5527544
220, 472018816, 0.36268815, -0.74101263, 0.3550552, 0.4396529, -1.5141311, -1.1606334, -3.500029
221, 472035483, 0.35052794, -0.74675786, 0.35231188, 0.4419959, -0.65179765, -1.2822462, -3.9749503
222, 472052150, 0.33811104, -0.75322163, 0.34799594, 0.44411507, -0.14529577, -0.13238169, -4.072844
223, 472068817, 0.32749924, -0.75859046, 0.34351987, 0.44640777, 0.14149521, 1.1648409, -2.894133
224, 472085484, 0.32289082, -0.76050085, 0.34023574, 0.4490222, 1.4368515, 2.311967, -0.25673962
225, 472102151, 0.32380435, -0.76015514, 0.3394422, 0.4495501, 3.348135, 2.5517805, 1.2488232
226, 472118818, 0.32502115, -0.759919, 0.34050754, 0.4482638, 4.739998, 1.9664688, 1.938077
227, 472135485, 0.32808414, -0.7583381, 0.34328333, 0.44658953, 5.078266, 1.8825662, 2.2038984
228, 472152152, 0.33348036, -0.75569886, 0.34762534, 0.44369838, 4.3806324, 1.5246954, 3.2074623
229, 472168819, 0.3391932, -0.7531181, 0.3528243, 0.43963337, 2.5788236, 0.7347224, 3.3969355
230, 472185486, 0.3438797, -0.751075, 0.3585843, 0.4348008, 0.74116236, 0.5312418, 2.1275673
231, 472202153, 0.34853995, -0.74875104, 0.36493903, 0.42978242, -0.9037201, 0.4035285, 0.8612194
232, 472218820, 0.35227552, -0.746203, 0.37005648, 0.42678198, -2.5632143, -0.0031025833, 1.0403032
233, 472235487, 0.3556134, -0.74301356, 0.3712284, 0.4285569, -4.224237, 1.5685582, 6.229267
234, 472252154, 0.36008537, -0.74041, 0.37279814, 0.42796555, -1.89907, 2.82294, 5.5997705
235, 472268821, 0.36494297, -0.73843235, 0.3757151, 0.42470464, 1.2658979, 4.9668307, 0.958642
236, 472285488, 0.37106588, -0.7329145, 0.3813842, 0.4239033, -2.6507225, 2.9340823, -3.3311763
237, 472302155, 0.37912282, -0.7222954, 0.3897141, 0.42741042, -8.826462, -2.944633, -5.8424654
238, 472318822, 0.3816424, -0.7127342, 0.39687425, 0.4345705, -11.715747, -6.7534237, -2.840273
239, 472335489, 0.3773525, -0.708418, 0.40150163, 0.4410748, -9.323469, -2.2212577, -0.44837284
240, 472352156, 0.36901236, -0.7062861, 0.40385965, 0.44932017, -3.7025747, 1.2836275, 3.6706648
241, 472368823, 0.36197928, -0.7041018, 0.40442747, 0.45787716, 1.3963467, 0.5370433, 3.3062468
242, 472385490, 0.3542008, -0.70172703, 0.4059491, 0.46618438, 2.5138266, 0.75769776, -0.62473583
243, 472402157, 0.34815586, -0.6977428, 0.40904683, 0.47394562, 1.3323545, -0.18791114, -1.17735
244, 472418824, 0.34424728, -0.6931625, 0.41207868, 0.4808452, 0.23484483, -0.06592447, -0.54840374
245, 472435491, 0.3411838, -0.6880747, 0.41454676, 0.48815885, -1.2625797, -0.18322833, -0.38989544
246, 472452158, 0.33572543, -0.68389726, 0.41696274, 0.49569798, -1.6146252, -1.4389417, -0.5503893
247, 472468825, 0.32548982, -0.6819599, 0.41805032, 0.5042046, -0.71622884, -1.7750876, -0.5320263
248, 472485492, 0.313142, -0.6809294, 0.41767585, 0.51363933, -0.1469286, -0.6133334, -0.3301878
249, 472502159, 0.30110618, -0.67966187, 0.41642478, 0.5234374, 0.575074, 0.7014105, 0.06538868
250, 472518826, 0.29146022, -0.6770965, 0.41508222, 0.53319746, 1.0786157, 1.4626734, 0.020462036
251, 472535493, 0.2842971, -0.67272645, 0.41474864, 0.54276997, 0.50603276, 1.2495818, -0.121920586
252, 472552160, 0.27755043, -0.6673946, 0.41571036, 0.5520295, 0.38287535, 0.4895799, -0.120370865
253, 472568827, 0.27019945, -0.6617416, 0.41771093, 0.56090057, 0.8963453, 0.21556528, -0.39624882
254, 472585494, 0.2635446, -0.65558654, 0.42092702, 0.56883407, 1.0622616, 0.41014448, -0.41521168
255, 472602161, 0.25761238, -0.6494913, 0.4240987, 0.57614106, 1.4433767, 0.11581525, -0.24948692
256, 472618828, 0.25218886, -0.64341307, 0.42737824, 0.58289766, 1.4679993, 0.013465091, -0.06314564
257, 472635495, 0.2468428, -0.63754517, 0.4299538, 0.5896999, 1.4288957, -0.2070966, -0.08072853
258, 472652162, 0.24133238, -0.6323931, 0.43096793, 0.59674597, 2.1036859, -0.29460907, -0.6337671
259, 472668829, 0.23499246, -0.62813526, 0.43058813, 0.6040032, 1.8838338, -0.5588911, -0.9547672
260, 472685496, 0.228222, -0.6246648, 0.42917672, 0.6111606, 1.7340196, -0.46608934, -0.7635937
261, 472702163, 0.22184913, -0.622062, 0.42689836, 0.6177224, 1.9101024, -0.17438324, -0.43879986
262, 472718830, 0.21599229, -0.62021375, 0.42390844, 0.6236869, 2.1888816, 0.38919944, -0.021718979
263, 472735497, 0.21064146, -0.6191038, 0.4198467, 0.62934154, 2.7226048, 0.47132435, 0.12140179
264, 472752164, 0.2069107, -0.61827207, 0.4155687, 0.6342175, 2.9825404, 0.33272117, 0.15780735
265, 472768831, 0.20478648, -0.6175364, 0.4116137, 0.6381903, 2.8829696, 0.4503985, 0.61334324
266, 472785498, 0.2039391, -0.6164694, 0.40837577, 0.6415646, 3.2181275, 0.40883067, 1.1770592
267, 472802165, 0.20367631, -0.6151766, 0.40548956, 0.6447118, 3.161492, -0.21897788, 0.9920292
268, 472818832, 0.20356801, -0.6139158, 0.402385, 0.64788514, 3.7140553, -0.46104085, 0.45362377
269, 472835499, 0.20419185, -0.6124555, 0.39917, 0.65105206, 4.668147, -0.8475218, 0.080654144
270, 472852166, 0.20568928, -0.611283, 0.39651278, 0.6533024, 6.194451, -0.7373925, -0.42418098
271, 472868833, 0.2085712, -0.6119988, 0.39313, 0.6537627, 8.08188, -0.25358954, -0.85970306
272, 472885500, 0.21229203, -0.6156201, 0.38772228, 0.65239316, 9.160782, 0.36808246, -1.2632332
273, 472902167, 0.21570635, -0.6236199, 0.3782313, 0.6492391, 9.145278, 0.6319988, -2.4872546
274, 472918834, 0.21715593, -0.63821507, 0.36239856, 0.64357865, 8.210834, 3.307408, -3.0804248
275, 472935501, 0.22278768, -0.65382344, 0.3453636, 0.63529986, 6.95261, 4.4758086, -1.4361372
276, 472952168, 0.23462068, -0.66523767, 0.33420226, 0.6250778, 3.5030065, 1.1938636, 1.4487429
277, 472968835, 0.2545322, -0.6716572, 0.33161706, 0.61165476, -1.2900819, -2.3859086, 5.5808163
278, 472985502, 0.27530015, -0.67858785, 0.33066967, 0.5953045, -5.211302, -4.099689, 3.5828428
279, 473002169, 0.28882396, -0.6903987, 0.32486805, 0.57826686, -2.5176816, -3.6390836, 2.1934404
280, 473018836, 0.29472154, -0.70637614, 0.31561068, 0.56085926, -1.0105261, -3.2380786, 3.4689865
281, 473035503, 0.2962827, -0.72326416, 0.3069439, 0.5430401, -2.6702883, -2.1881633, 2.845315
282, 473052170, 0.29895285, -0.7383468, 0.30151805, 0.52398425, -3.6627467, -0.6670494, 2.035552
283, 473068837, 0.30400982, -0.7503456, 0.2978981, 0.5057842, -4.22224, 0.8492188, 1.4212084
284, 473085504, 0.31204376, -0.75840276, 0.29747456, 0.48883978, -4.035839, 1.6050795, 1.0263014
285, 473102171, 0.3245928, -0.7623324, 0.30244297, 0.47118863, -3.8292508, 2.1338742, 0.28594303
286, 473118838, 0.34246618, -0.7623206, 0.31249154, 0.45159155, -3.8861635, 2.0653415, -0.44814777
287, 473135505, 0.36213383, -0.7596102, 0.3248541, 0.43165138, -4.8762636, 1.0623528, -2.208168
288, 473152172, 0.37786084, -0.75607777, 0.33574486, 0.41574544, -6.3922586, 0.2485975, -3.369289
289, 473168839, 0.38987738, -0.7513362, 0.343072, 0.4071764, -7.4486966, -0.9743938, -4.353511
290, 473185506, 0.3978001, -0.74687517, 0.3482055, 0.40334475, -7.6629815, -2.0260222, -5.446572
291, 473202173, 0.40012795, -0.7433852, 0.35208935, 0.4041173, -8.12634, -2.417552, -5.984006
292, 473218840, 0.39459345, -0.74265414, 0.35279554, 0.41024083, -6.8359146, -2.8929965, -5.8684216
293, 473235507, 0.38116094, -0.7462258, 0.34982815, 0.41890964, -4.278771, -0.8387846, -4.630617
294, 473252174, 0.36132807, -0.7543491, 0.34267598, 0.42775476, -0.9975503, 2.2687309, -2.6927428
295, 473268841, 0.34301528, -0.76329714, 0.33385292, 0.43389142, 1.3361527, 2.5215776, -1.3571396
296, 473285508, 0.3313916, -0.7692121, 0.32574606, 0.43861526, 2.8174696, 1.9284179, 1.3634815
297, 473302175, 0.32860333, -0.76997614, 0.32183206, 0.44224685, 4.421782, 2.8453302, 2.6770725
298, 473318842, 0.32957113, -0.76906216, 0.32244268, 0.4426722, 6.752438, 1.6196907, 1.8250399
299, 473335509, 0.33236364, -0.767834, 0.3238228, 0.4417077, 8.027955, 1.352058, 3.7163897
300, 473352176, 0.33519512, -0.7676801, 0.3240127, 0.43969148, 8.2689085, 2.1823273, 3.5371466
301, 473368843, 0.33943567, -0.76767373, 0.32522973, 0.43553132, 5.222158, 2.0710053, 2.7508984
302, 473385510, 0.34457913, -0.7679979, 0.32796454, 0.42881846, 2.0561292, 1.0080539, 2.371502
303, 473402177, 0.3490467, -0.7690515, 0.33089036, 0.42099836, -0.2299403, 0.5401698, 1.6791782
304, 473418844, 0.353477, -0.76947635, 0.33385095, 0.4141322, -1.9911987, 0.7416439, 0.77841187
305, 473435511, 0.3582421, -0.7677063, 0.33742905, 0.41040635, -3.65529, 0.4925232, -0.3474636
306, 473452178, 0.36275834, -0.76360345, 0.34193859, 0.41036105, -5.313012, 0.10714518, -1.4922152
307, 473468845, 0.36843008, -0.75614375, 0.34789702, 0.41409588, -8.813565, 1.0093148, 3.865118
308, 473485512, 0.3709676, -0.7500834, 0.35479414, 0.41699043, -5.2545795, 0.8222069, 3.7292376
309, 473502179, 0.37348127, -0.74763465, 0.3580031, 0.4164009, 5.8914366, 5.1674633, 3.140829
310, 473518846, 0.38051683, -0.74069077, 0.36584532, 0.41562405, 3.2214084, 2.8774345, 0.79977036
311, 473535513, 0.39070255, -0.7289596, 0.37900233, 0.41512465, -4.890244, -1.9065078, -1.6754951
312, 473552180, 0.39619774, -0.7188564, 0.3904852, 0.41688827, -11.739554, -3.9556434, -2.7444859
313, 473568847, 0.39148664, -0.7152523, 0.39529014, 0.4229655, -12.619259, -3.359162, -3.9474297
314, 473585514, 0.3807632, -0.71330845, 0.39866298, 0.43275878, -8.437537, -3.0738306, -3.0645485
315, 473602181, 0.36839056, -0.7109332, 0.4033459, 0.4429179, -3.4211762, 0.70998466, 2.455514
316, 473618848, 0.36226618, -0.70579594, 0.408197, 0.4516549, 2.3046591, 2.7559257, 4.20994
317, 473635515, 0.35949358, -0.6974617, 0.41502684, 0.46050623, 1.2516313, 1.0595938, -0.70462894
318, 473652182, 0.35586512, -0.6891288, 0.42222276, 0.46924534, -1.5807241, -1.6872214, -0.29036617
319, 473668849, 0.34815246, -0.6832635, 0.42712465, 0.47906926, -3.235608, -1.8530205, -0.13903713
320, 473685516, 0.33739763, -0.6787782, 0.4301216, 0.49032688, -3.292736, 0.057291735, -0.5171776
321, 473702183, 0.3247077, -0.6742902, 0.43191737, 0.5033358, -2.7443225, -0.04769297, -0.22864246
322, 473718850, 0.31033322, -0.66930014, 0.43420595, 0.51691157, -2.1804554, -1.0302194, -0.6887026
323, 473735517, 0.29473463, -0.6646004, 0.43489814, 0.53132224, -0.42495424, 0.10026679, 0.04886055
324, 473752184, 0.28302625, -0.65839565, 0.43488604, 0.5452405, 1.5617311, 1.3644608, 0.037100792
325, 473768851, 0.2754978, -0.6513498, 0.4362734, 0.55633783, 2.9863489, 0.85494083, -0.9488001
326, 473785518, 0.26899597, -0.64444256, 0.43939775, 0.56503665, 2.399534, -0.4714067, -1.4588108
327, 473802185, 0.26123738, -0.63827354, 0.44239765, 0.5732782, 1.9279686, -0.92189586, -0.8048067
328, 473818852, 0.25363332, -0.6329475, 0.44421566, 0.58113855, 2.069857, -1.0207376, -1.0712366
329, 473835519, 0.24629252, -0.62882876, 0.44453436, 0.5884773, 1.8678206, -0.52698463, -0.94258785
330, 473852186, 0.23970711, -0.625312, 0.44342673, 0.5957349, 1.5973272, -0.28794214, -0.13111305
331, 473868853, 0.23339494, -0.6223928, 0.44146606, 0.6027135, 1.5831033, -0.27153158, 0.4314289
332, 473885520, 0.22670257, -0.6195547, 0.43877414, 0.61011237, 1.3670503, 0.07722127, 1.0808764
333, 473902187, 0.220223, -0.61663043, 0.43583906, 0.6175069, 1.8457135, 0.3524721, 0.77383614
334, 473918854, 0.21400067, -0.6135587, 0.43183577, 0.6255152, 2.0864425, 0.5324758, 0.87933064
335, 473935521, 0.21000987, -0.60988003, 0.42827502, 0.63286996, 3.1324859, -0.019882148, 0.19187069
336, 473952188, 0.20740442, -0.60582787, 0.4254119, 0.6395173, 3.4223728, -0.15517029, -0.22035885
337, 473968855, 0.20469889, -0.60183936, 0.42331922, 0.64551556, 2.6915028, -0.5570488, 0.7182083
338, 473985522, 0.20167698, -0.5980857, 0.4203117, 0.6518893, 2.1320918, -0.93070126, 0.81989765
339, 474002189, 0.19846645, -0.5950282, 0.4155168, 0.65871084, 2.851403, -1.5736408, 0.35189915
340, 474018856, 0.19606505, -0.5925427, 0.40898693, 0.66572005, 5.188892, -1.602773, -0.7808075
341, 474035523, 0.19476886, -0.59080285, 0.40206772, 0.6718338, 7.803662, -1.9028423, -2.2453341
342, 474052190, 0.19545986, -0.5921293, 0.39474183, 0.674803, 11.09588, -0.77147824, -3.6577473
343, 474068857, 0.19797331, -0.5967353, 0.38582182, 0.67517173, 13.037022, 1.2134979, -3.4627428
344, 474085524, 0.20126224, -0.60656744, 0.37366393, 0.6722697, 12.901461, 2.4302528, -2.9634743
345, 474102191, 0.20436311, -0.6212983, 0.3581342, 0.6663074, 8.057126, 3.616993, -3.06643
346, 474118858, 0.21350516, -0.6342584, 0.34625807, 0.657449, 6.0910325, 2.3334565, -1.0231304
347, 474135525, 0.23002553, -0.6431852, 0.34161898, 0.6455225, 3.6618025, -0.6531585, 4.3933477
348, 474152192, 0.24887845, -0.65188813, 0.3418778, 0.6294622, -0.056572862, -3.4334276, 5.26836
349, 474168859, 0.26327044, -0.665665, 0.34004936, 0.6098744, -0.30631915, -3.5041866, 3.8613586
350, 474185526, 0.272982, -0.6811959, 0.33461747, 0.5911733, -0.43394905, -2.9220877, 3.963807
351, 474202193, 0.27842548, -0.69781095, 0.32780585, 0.57278645, -2.4752588, -1.3584054, 4.3817225
352, 474218860, 0.28284952, -0.7141875, 0.32310346, 0.55275553, -3.1012194, 0.29726374, 3.5004854
353, 474235527, 0.29314792, -0.72605276, 0.3230328, 0.5315669, -3.3076434, 2.0343707, 2.0155458
354, 474252194, 0.30772248, -0.73376507, 0.3256832, 0.51071346, -3.6491933, 2.1037974, 1.0036163
355, 474268861, 0.3234671, -0.7395836, 0.33143845, 0.48840117, -3.1848793, 1.719647, 0.40637302
356, 474285528, 0.34037298, -0.7435824, 0.34022468, 0.46419895, -3.3033695, 1.505846, -0.29852295
357, 474302195, 0.35763156, -0.7457651, 0.35028324, 0.43958822, -4.3509455, 0.6823884, -1.816318
358, 474318862, 0.3708639, -0.74748135, 0.3577612, 0.41921434, -6.43546, -0.4007962, -3.4522076
359, 474335529, 0.37721333, -0.7502815, 0.35991704, 0.40650886, -8.1042385, -1.3143992, -4.143753
360, 474352196, 0.3807199, -0.75276864, 0.35833544, 0.39998698, -8.857765, -1.2976776, -4.619288
361, 474368863, 0.38377008, -0.7541009, 0.35565057, 0.3969473, -9.106366, -1.3784666, -4.821189
362, 474385530, 0.38330734, -0.75548136, 0.35205787, 0.39797083, -8.981586, -1.419483, -4.570505
363, 474402197, 0.37651256, -0.75857073, 0.34694594, 0.40303734, -7.177103, -0.2444934, -5.1073694
364, 474418864, 0.36094317, -0.76488394, 0.34097204, 0.41038093, -4.609584, 2.1608942, -4.5156255
365, 474435531, 0.34328437, -0.7714853, 0.33567902, 0.41747776, -1.3131539, 3.743006, -3.094099
366, 474452198, 0.33186162, -0.7747511, 0.33358932, 0.42231354, 0.35391054, 2.595822, -2.1107059
367, 474468865, 0.320898, -0.7774444, 0.33193752, 0.42711142, 1.8865508, 0.67491794, 1.9079685
368, 474485532, 0.31008986, -0.78008425, 0.32942265, 0.43219817, 4.3489323, -0.48150948, 5.2700243
369, 474502199, 0.30799046, -0.7803397, 0.3279117, 0.43438187, 8.989667, 0.7230273, 5.2898407
370, 474518866, 0.31231886, -0.7797115, 0.32796064, 0.4323779, 13.250317, 3.1497378, 7.0396347
371, 474535533, 0.3187362, -0.77890545, 0.33065143, 0.42706585, 11.311435, 3.508967, 4.8256187
372, 474552200, 0.33055383, -0.7750918, 0.33914363, 0.41827047, 5.60334, 1.0575497, 2.507331
373, 474568867, 0.3482221, -0.7665617, 0.3517574, 0.4091371, -0.7305946, 0.7834108, -0.7525749
374, 474585534, 0.36559758, -0.75461584, 0.36310473, 0.40626368, -8.706371, 2.842647, -2.9664512
375, 474602201, 0.37754032, -0.74264747, 0.37596387, 0.40569857, -20.9517, -0.28886837, 8.016138
376, 474618868, 0.37237066, -0.7394884, 0.38205162, 0.41053078, -4.608012, -0.738749, -3.2368412
377, 474635535, 0.36941835, -0.74094963, 0.38019305, 0.41228533, 3.7128038, 3.9748409, -0.6120415
378, 474652202, 0.37303448, -0.73592144, 0.38569355, 0.4129256, -1.1278902, -0.19396879, 0.63342285
379, 474668869, 0.37092957, -0.7290874, 0.3929123, 0.42007697, -11.194349, -2.423045, -0.15279102
380, 474685536, 0.36507714, -0.72481376, 0.3977989, 0.42792708, -14.09414, -3.117467, 0.6819143
381, 474702203, 0.35744065, -0.7220656, 0.4023996, 0.43466538, -3.7393415, -0.73125845, -2.8668733
382, 474718870, 0.3507868, -0.7177617, 0.40755934, 0.44233933, -1.1275634, 0.33007947, -0.07205105
383, 474735537, 0.3455924, -0.7119309, 0.41119558, 0.4523723, -0.1663095, 0.70071805, 2.1890059
384, 474752204, 0.34042463, -0.7059547, 0.4159888, 0.46118814, -1.2530816, -0.21776253, -0.68581295
385, 474768871, 0.33354104, -0.70174986, 0.42000365, 0.46893108, -1.2197508, -1.6484876, 0.041057587
386, 474785538, 0.3239181, -0.6982431, 0.4223857, 0.47867104, -2.151695, -0.40599185, 0.33298874
387, 474802205, 0.3133203, -0.6945072, 0.42329744, 0.4902156, -2.7195048, 0.053569127, -0.26593208
388, 474818872, 0.30243525, -0.69081616, 0.4237667, 0.5017265, -0.8192494, -0.6571392, -0.101306915
389, 474835539, 0.29180744, -0.68676734, 0.4240028, 0.513247, 0.4464677, -0.25856984, 0.19991016
390, 474852206, 0.2817906, -0.68188465, 0.42424318, 0.525021, 0.58916193, 0.40369257, 0.28603268
391, 474868873, 0.27270758, -0.67597705, 0.42525208, 0.53651506, 0.8795791, -0.13120188, 0.014006615
392, 474885540, 0.26492026, -0.669557, 0.4271078, 0.5468925, 1.2518803, -0.59227616, -0.49295425
393, 474902207, 0.25738978, -0.66373754, 0.4290531, 0.55598384, 1.3746336, -0.8901941, -1.1241636
394, 474918874, 0.24988379, -0.6584901, 0.43029943, 0.56461763, 1.6186646, -0.47704905, -1.0606756
395, 474935541, 0.24242449, -0.6535787, 0.43090314, 0.573053, 1.3368952, -0.10367067, -1.2339535
396, 474952208, 0.2355386, -0.6486594, 0.4307668, 0.5815536, 0.88550836, -0.6182717, -1.2514763
397, 474968875, 0.22957519, -0.6436838, 0.4303699, 0.5897037, 1.2460614, -0.71759003, -1.2142076
398, 474985542, 0.22446413, -0.63880163, 0.42951626, 0.5975501, 2.2042103, -1.0583146, -1.6405602
399, 475002209, 0.21809646, -0.6351808, 0.42702562, 0.6055003, 2.1659353, -0.290304, -0.48162174
400, 475018876, 0.21008468, -0.63205606, 0.42271367, 0.6145605, 0.11428888, 0.26976886, 1.5129671
401, 475035543, 0.20155282, -0.6287277, 0.41738376, 0.6243963, 0.8135116, 0.49378046, 1.5242176
402, 475052210, 0.1964605, -0.6245564, 0.4131232, 0.63298, 3.6708372, 1.2974001, 0.11308956
403, 475068877, 0.19528922, -0.6197691, 0.41003114, 0.64001954, 5.013675, 1.22742, -0.63382053
404, 475085544, 0.19553202, -0.61503977, 0.40743375, 0.64613706, 4.8568726, -0.37777176, 0.78657055
405, 475102211, 0.19445132, -0.61153233, 0.40308985, 0.65248567, 5.220596, -1.3928396, 1.3292542
406, 475118878, 0.19194731, -0.60944384, 0.39633787, 0.65928185, 6.908465, -1.9410964, -0.43133926
407, 475135545, 0.18917714, -0.60848933, 0.3874623, 0.6662038, 8.176558, -1.9277974, -1.0107317
408, 475152212, 0.18609463, -0.6092741, 0.37544936, 0.67319643, 8.687951, -1.890753, -1.2830677
409, 475168879, 0.18311389, -0.61470526, 0.35794502, 0.6785898, 11.796343, 1.3742589, -2.3066292
410, 475185546, 0.18346827, -0.62480253, 0.33791158, 0.6795432, 12.036641, 6.342534, -3.4208932
411, 475202213, 0.1919025, -0.6357357, 0.32102954, 0.67524475, 8.912182, 5.908606, -4.3613033
412, 475218880, 0.20657228, -0.64492464, 0.31133807, 0.66668636, 7.7585416, 1.5130142, -1.9207196
413, 475235547, 0.22801611, -0.65146184, 0.3103768, 0.65366226, 6.964343, -2.6718404, 3.5336676
414, 475252214, 0.25060472, -0.66258603, 0.31535196, 0.6314524, 1.8135396, -5.7490997, 5.7634068
415, 475268881, 0.26771292, -0.6768117, 0.31712005, 0.60802346, -1.4562327, -4.5696983, 3.959321
416, 475285548, 0.27921075, -0.69218445, 0.31267142, 0.5875037, -2.0542395, -3.1837149, 4.668789
417, 475302215, 0.28663266, -0.70882666, 0.30427286, 0.56817794, -3.8239124, -1.7997167, 4.8713617
418, 475318882, 0.29466316, -0.7246042, 0.29912674, 0.54648644, -3.7794015, -0.64955807, 3.2739258
419, 475335549, 0.30330276, -0.7385345, 0.29668924, 0.5239766, -4.399098, 0.83017206, 1.5060434
420, 475352216, 0.31016952, -0.750565, 0.29634652, 0.5026208, -4.832241, 1.3999782, 0.5641804
421, 475368883, 0.3186186, -0.7593682, 0.30027485, 0.48133063, -4.157574, 1.3890989, 0.19005013
422, 475385550, 0.33081678, -0.76493865, 0.3087675, 0.4583601, -4.1808796, 1.6004649, -0.59637547
423, 475402217, 0.34592074, -0.7669406, 0.31928748, 0.4361178, -5.259178, 1.76703, -1.6581726
424, 475418884, 0.35912448, -0.7671299, 0.3269432, 0.4191083, -6.2149777, 0.24103925, -2.718038
425, 475435551, 0.36825478, -0.7668101, 0.33070153, 0.40869218, -7.139855, -1.6511954, -3.7743316
426, 475452218, 0.3756497, -0.76552075, 0.333081, 0.40239838, -8.046536, -2.5390623, -4.8496556
427, 475468885, 0.38049698, -0.7636889, 0.33537775, 0.3994061, -9.126146, -2.9334276, -5.4573693
428, 475485552, 0.38053367, -0.76217806, 0.33629265, 0.4014826, -8.473343, -1.9178232, -5.755783
429, 475502219, 0.37270683, -0.7637136, 0.33534566, 0.40666524, -6.2178073, 0.58604497, -5.523328
430, 475518886, 0.3546072, -0.7705864, 0.33061507, 0.413698, -2.1563776, 3.5974128, -3.217969
431, 475535553, 0.33918685, -0.7774613, 0.32559794, 0.41772503, 1.6490732, 4.824454, -1.7255669
432, 475552220, 0.3298224, -0.7819158, 0.3221143, 0.41960594, 2.8197906, 2.595982, -0.51999474
433, 475568887, 0.3242207, -0.78379536, 0.3194752, 0.42247322, 3.0145137, 0.8054439, 2.2471924
434, 475585554, 0.32296106, -0.78367215, 0.3195273, 0.4236252, 3.9496295, 0.06880355, 3.5075502
435, 475602221, 0.32634625, -0.78201014, 0.3209232, 0.42304668, 5.839757, 1.3377823, 4.3949404
436, 475618888, 0.32929078, -0.78154355, 0.32091057, 0.42163464, 7.236711, 2.6467488, 4.305294
437, 475635555, 0.33022058, -0.7821444, 0.3209397, 0.41976672, 4.596155, 1.8829437, 3.4674244
438, 475652222, 0.3305823, -0.78310776, 0.3229448, 0.41613245, 0.9986626, 0.45196733, 2.7955828
439, 475668889, 0.33344075, -0.78260833, 0.32709107, 0.4115272, -0.55665344, 0.08429322, 2.489111
440, 475685556, 0.33840665, -0.7795021, 0.3327367, 0.40883425, -3.0736167, 0.33678898, 0.2785759
441, 475702223, 0.34225354, -0.7736136, 0.3401501, 0.41071194, -6.29468, 0.30583972, -2.7377424
442, 475718890, 0.34744138, -0.7628792, 0.3478546, 0.41987997, -10.070119, 2.9820378, 0.4371891
443, 475735557, 0.34767845, -0.7528048, 0.3589923, 0.42840543, -14.734844, 0.05245687, 5.82944
444, 475752224, 0.34892163, -0.74820864, 0.3617031, 0.43314025, 8.88042, 4.973428, 3.7590504
445, 475768891, 0.35765806, -0.7425367, 0.36734864, 0.43101817, 9.84536, 2.9874523, 2.6016226
446, 475785558, 0.3562567, -0.73680186, 0.37548122, 0.4349941, -3.1758149, -0.41389152, -5.185925
447, 475802225, 0.35383442, -0.72913677, 0.38225913, 0.44389254, -10.585348, -1.8658667, -1.4923582
448, 475818892, 0.35799462, -0.7197915, 0.38882497, 0.45006362, -14.454865, -5.6437945, -1.3063993
449, 475835559, 0.35432807, -0.71567476, 0.39397094, 0.45502794, -2.4005525, -1.1052794, -3.907146
450, 475852226, 0.34660724, -0.7125372, 0.39754093, 0.462728, 0.96131057, -2.8983586, 1.2321863
451, 475868893, 0.33749923, -0.70831513, 0.40199584, 0.4720012, -0.27339366, -2.4473765, 1.0027218
452, 475885560, 0.32686818, -0.70442563, 0.4072542, 0.48071572, -2.1354454, 1.6864748, 0.39159966
453, 475902227, 0.31856358, -0.69979984, 0.4110844, 0.48970306, -1.2507509, 1.5198988, 0.61659145
454, 475918894, 0.3115242, -0.6935009, 0.41422486, 0.5004286, -1.3131106, 0.9034693, 0.18027115
455, 475935561, 0.3054887, -0.6850903, 0.41897956, 0.5116503, -2.975683, 0.06618599, -0.72042084
456, 475952228, 0.29758886, -0.67695516, 0.4234702, 0.52330446, -2.5538495, -1.2860805, -0.30685425
457, 475968895, 0.28451705, -0.67179173, 0.42553446, 0.5354141, -0.7458277, -2.2542279, -0.36079884
458, 475985562, 0.2686034, -0.66827506, 0.4252088, 0.5481423, -0.4157326, -1.0054462, -0.12670803
459, 476002229, 0.255948, -0.6628701, 0.4238855, 0.5616196, 0.3915491, 0.94687486, -0.190279
460, 476018896, 0.24721693, -0.65547854, 0.42484906, 0.57335585, 0.86340576, 0.53267384, -0.5711193
461, 476035563, 0.23933238, -0.6474435, 0.42773294, 0.5835953, 0.98623234, 0.014060195, -0.54124165
462, 476052230, 0.23063935, -0.6400148, 0.43009585, 0.5934694, 2.4711246, -0.38317987, -0.70462894
463, 476068897, 0.22248214, -0.6334955, 0.43103224, 0.6028253, 2.8558502, -0.07022643, -1.8319564
464, 476085564, 0.21538004, -0.6281575, 0.43025494, 0.6114837, 3.1832767, -0.5462514, -1.1172962
465, 476102231, 0.20996155, -0.62421024, 0.4284287, 0.6186505, 5.0981812, -0.81671184, -1.1300182
466, 476118898, 0.20540527, -0.6212699, 0.42662087, 0.6243628, 5.2930164, -0.4652791, -0.6673689
467, 476135565, 0.20068057, -0.6190059, 0.424451, 0.6296047, 3.1668205, -0.06319315, 0.54058266
468, 476152232, 0.19632019, -0.6170237, 0.4210954, 0.635154, 2.2105632, 0.3569446, 0.9160309
469, 476168899, 0.19324417, -0.6147578, 0.41733605, 0.64075124, 2.520211, 0.6351267, 1.0735111
470, 476185566, 0.19158939, -0.6119658, 0.41414347, 0.64597094, 2.9166858, 0.4646574, 0.96485615
471, 476202233, 0.19103922, -0.6087788, 0.41165864, 0.6507162, 2.7561388, 0.1372251, 1.3111753
472, 476218900, 0.19060974, -0.60546875, 0.4087646, 0.6557354, 2.6714957, -0.5904106, 1.945694
473, 476235567, 0.1894004, -0.6027121, 0.40466318, 0.6611468, 3.3743956, -1.2414623, 1.0549383
474, 476252234, 0.18758012, -0.6009994, 0.3984925, 0.66694754, 5.0411186, -1.7764261, -0.46568584
475, 476268901, 0.18654782, -0.6001131, 0.39082593, 0.6725484, 7.6098704, -2.0883842, -1.9605203
476, 476285568, 0.18715005, -0.6013762, 0.38230917, 0.6761384, 11.349162, -1.3028305, -3.758007
477, 476302235, 0.18863024, -0.60763365, 0.37169746, 0.67604953, 13.991118, 0.86872846, -4.5554914
478, 476318902, 0.18890564, -0.6202539, 0.3555144, 0.6732096, 11.334673, 3.3311455, -4.5006514
479, 476335569, 0.19132715, -0.63643146, 0.33546555, 0.66769284, 8.7968025, 4.2391763, -3.6145577
480, 476352236, 0.19989024, -0.65082484, 0.3211078, 0.65830284, 7.267404, 2.0707576, -0.74694824
481, 476368903, 0.21847607, -0.65990734, 0.31778607, 0.64482915, 3.2245176, -0.63377947, 5.313245
482, 476385570, 0.24149007, -0.66940933, 0.3201019, 0.62538826, -2.518861, -4.381873, 6.5347443
483, 476402237, 0.25876868, -0.6847879, 0.31822246, 0.60236263, -0.09692201, -3.204589, 3.6457624
484, 476418904, 0.2708453, -0.70120007, 0.31207854, 0.5810081, 1.0172541, -2.1217349, 5.0079126
485, 476435571, 0.27991304, -0.71731085, 0.30512667, 0.56036896, -1.6592932, -1.495241, 4.4931507
486, 476452238, 0.28804082, -0.73331904, 0.30087924, 0.537354, -3.8432007, -0.53725207, 2.7207603
487, 476468905, 0.2946388, -0.74843025, 0.2977359, 0.5141939, -5.3892717, 1.1834593, 1.215683
488, 476485572, 0.3021444, -0.7597351, 0.29734147, 0.49305293, -5.9311295, 1.8755066, 0.5648718
489, 476502239, 0.3153688, -0.7654692, 0.3018177, 0.4727656, -5.263346, 1.7763791, 0.027226448
490, 476518906, 0.33595198, -0.76609766, 0.31241113, 0.4501465, -4.83918, 0.81435907, -1.1591578
491, 476535573, 0.3564863, -0.7646574, 0.32473606, 0.42751, -5.8719516, -0.7065106, -2.7889485
492, 476552240, 0.3678839, -0.76453865, 0.33198315, 0.41222683, -7.810738, -2.0023699, -3.7632298
493, 476568907, 0.3709053, -0.7660658, 0.33369777, 0.4052409, -8.509276, -2.7303417, -5.1854224
494, 476585574, 0.3707643, -0.76713634, 0.3332734, 0.4036913, -8.593196, -2.5799453, -5.6370473
495, 476602241, 0.37086746, -0.76554155, 0.33218828, 0.40750024, -8.934327, -1.1995153, -5.726785
496, 476618908, 0.3669695, -0.764922, 0.33067977, 0.41337708, -7.223122, 1.0462168, -5.8840175
497, 476635575, 0.35354504, -0.76902455, 0.32682672, 0.42046794, -3.7001595, 4.2053113, -4.1984086
498, 476652242, 0.3389927, -0.7751109, 0.32333478, 0.4239618, 0.7754991, 4.391847, -2.126905
499, 476668909, 0.32883868, -0.77986544, 0.32129762, 0.42478812, 2.631309, 1.1007894, -0.987236
500, 476685576, 0.31877074, -0.7836978, 0.31887147, 0.42723075, 3.7346816, -0.4271688, 1.5461636
501, 476702243, 0.31158024, -0.785555, 0.31605825, 0.4311967, 3.2592335, 1.1000798, 4.187701
502, 476718910, 0.31337085, -0.78425443, 0.3158367, 0.432427, 6.206818, 1.865579, 4.8379297
503, 476735577, 0.31941184, -0.78196865, 0.31786326, 0.43065792, 9.069285, 2.4443977, 6.015666
504, 476752244, 0.32463554, -0.78039914, 0.32044965, 0.42767194, 7.612156, 2.5310009, 4.33535
505, 476768911, 0.3316779, -0.7780701, 0.32601157, 0.422274, 3.245527, 0.6754405, 3.4615536
506, 476785578, 0.34141612, -0.77366537, 0.333701, 0.41656053, -1.0070418, 0.16574715, 1.2081947
507, 476802245, 0.35233444, -0.76670927, 0.34195817, 0.4136233, -5.721359, 1.435839, -0.7491722
508, 476818912, 0.36367834, -0.7562776, 0.35142058, 0.415076, -12.584228, 2.719261, 7.877222
509, 476835579, 0.36715484, -0.74817705, 0.3616646, 0.417887, -6.890853, -0.4834288, -1.0383787
510, 476852246, 0.3693275, -0.7446337, 0.36470592, 0.41965428, 3.3651109, 3.3040853, -0.7771797
511, 476868913, 0.37414536, -0.73886466, 0.36974943, 0.42116734, -0.2815386, 1.5362967, -0.9950218
512, 476885580, 0.3780857, -0.73105687, 0.37810874, 0.4238433, -6.022068, -1.6792945, -1.0809288
513, 476902247, 0.37659076, -0.72506404, 0.38416213, 0.4299806, -11.654127, -3.3266408, -0.6278496
514, 476918914, 0.36952168, -0.7221213, 0.38773206, 0.4377909, -9.60871, -3.5864654, -3.1228585
515, 476935581, 0.36123586, -0.7183002, 0.39357132, 0.44571006, -4.123692, 0.09121374, -0.8140049
516, 476952248, 0.35240752, -0.71401215, 0.39852768, 0.45516336, -0.23522906, 1.2211242, 1.9902191
517, 476968915, 0.34271857, -0.7097367, 0.40240166, 0.46571767, 1.3408688, -0.39277261, 1.2327061
518, 476985582, 0.33706123, -0.7027045, 0.40825865, 0.475314, -0.43267414, -0.49740237, -0.52721214
519, 477002249, 0.33182013, -0.6957782, 0.41379467, 0.4843185, -1.2047874, -0.8601328, -0.60814
520, 477018916, 0.32503915, -0.6891553, 0.4190392, 0.49378455, -1.5637382, -0.6028272, -0.8109007
521, 477035583, 0.31568345, -0.6834561, 0.42338294, 0.50396526, -2.3182395, -0.9599347, -0.8988066
522, 477052250, 0.3025177, -0.679465, 0.42571464, 0.5153444, -1.8627405, -1.191013, -0.13041496
523, 477068917, 0.28809363, -0.6758434, 0.426302, 0.5277373, -1.1246732, 0.075559005, 0.27435398
524, 477085584, 0.27584857, -0.6711112, 0.42585278, 0.5405267, 0.66426104, 0.89451474, 0.4284773
525, 477102251, 0.26744002, -0.66464543, 0.42692703, 0.551777, 1.1747724, 0.46756205, -0.09268379
526, 477118918, 0.2600298, -0.6579019, 0.42895204, 0.56174016, 0.82377744, 0.15987132, -0.47437096
527, 477135585, 0.251783, -0.65151936, 0.43119183, 0.57114244, 0.7211235, -0.35244426, -0.59825516
528, 477152252, 0.24309811, -0.6451008, 0.4329226, 0.58080006, 0.9657947, -0.3261919, -0.66317654
529, 477168919, 0.23533422, -0.63852644, 0.43421984, 0.5902181, 0.7837067, -0.19474472, -0.8306637
530, 477185586, 0.22810142, -0.6320399, 0.43469507, 0.59961504, 0.4874906, -0.6725596, -0.3912325
531, 477202253, 0.22029519, -0.6260551, 0.43368384, 0.60946345, 0.92376506, -1.2894888, 0.2513466
532, 477218920, 0.21103218, -0.62159836, 0.42975637, 0.6199942, 2.6113095, -1.0491831, 0.31313038
533, 477235587, 0.20217815, -0.6181058, 0.42399338, 0.6303184, 3.8650138, 0.17799947, 0.17840481
534, 477252254, 0.19548084, -0.6147358, 0.41850847, 0.63932794, 4.900888, 0.49883285, -0.08479118
535, 477268921, 0.19134009, -0.6110853, 0.4140138, 0.64696115, 5.7067204, 0.4603569, -0.24482918
536, 477285588, 0.18893544, -0.6079738, 0.4102483, 0.65297025, 5.8310523, 0.15276775, -0.38996315
537, 477302255, 0.18740405, -0.6053878, 0.4062531, 0.65829027, 5.1455035, -0.1215383, 0.26598072
538, 477318922, 0.18657483, -0.6033272, 0.40188906, 0.663079, 4.958035, -0.6981633, 0.22036648
539, 477335589, 0.18656757, -0.60205346, 0.3963058, 0.66758406, 5.9604044, -0.93362725, -0.6069374
540, 477352256, 0.18742236, -0.60155344, 0.38958627, 0.67173755, 7.8331366, -1.3903451, -1.6295853
541, 477368923, 0.18922581, -0.60255677, 0.38190132, 0.6747391, 10.267072, -1.0634505, -2.9645944
542, 477385590, 0.19182943, -0.6086755, 0.37109262, 0.6745431, 13.517427, 0.07617098, -3.9951258
543, 477402257, 0.19131431, -0.6226378, 0.35215923, 0.6720916, 11.571011, 4.5268965, -3.8551493
544, 477418924, 0.19473006, -0.6388651, 0.33028328, 0.6669684, 7.9350414, 6.2687554, -3.2082858
545, 477435591, 0.20555618, -0.6510525, 0.31530362, 0.65913844, 5.1133323, 1.7575499, 1.111722
546, 477452258, 0.22502223, -0.6575598, 0.31081772, 0.64836305, 1.6408752, -2.7648702, 7.4452667
547, 477468925, 0.24972504, -0.6659681, 0.31313676, 0.6293422, -1.5229536, -5.4996777, 5.25795
548, 477485592, 0.26695722, -0.6802479, 0.31100208, 0.6076816, 0.50478244, -4.398546, 2.841504
549, 477502259, 0.2755179, -0.69662654, 0.3038367, 0.58863163, 0.75616145, -3.4158568, 4.4169617
550, 477518926, 0.2806888, -0.7136852, 0.29593903, 0.5694643, -2.7678714, -2.0031297, 4.2149124
551, 477535593, 0.28673294, -0.7297031, 0.29185534, 0.5478508, -3.8477814, -0.23315072, 2.6778555
552, 477552260, 0.29418457, -0.7428623, 0.29015276, 0.5267113, -4.427818, 0.84893274, 1.360753
553, 477568927, 0.30342662, -0.7528163, 0.2925372, 0.50559294, -4.0427685, 0.6443514, 1.1984015
554, 477585594, 0.31689286, -0.7589029, 0.30055428, 0.4830267, -3.8881893, 1.0167449, 0.7937746
555, 477602261, 0.33546332, -0.7608419, 0.31282765, 0.45904806, -4.279997, 1.6556822, -0.34630203
556, 477618928, 0.35567874, -0.75953144, 0.32595563, 0.43630263, -5.118217, 1.454492, -2.3613396
557, 477635595, 0.37163493, -0.75760263, 0.33602843, 0.41834563, -6.5922666, 0.60953534, -3.7712255
558, 477652262, 0.38290772, -0.75520194, 0.34170684, 0.40778717, -7.6707573, -0.7794745, -4.6593266
559, 477668929, 0.39085862, -0.75275296, 0.34525946, 0.40173477, -8.194142, -1.9292758, -5.565621
560, 477685596, 0.3951519, -0.74989444, 0.34685564, 0.4015056, -9.541295, -2.0131161, -5.5627985
561, 477702263, 0.39242053, -0.749304, 0.34488478, 0.40694767, -8.923377, -0.796518, -6.242814
562, 477718930, 0.37665746, -0.7555405, 0.33865213, 0.4154568, -6.3380485, 1.3873688, -5.2333813
563, 477735597, 0.35661066, -0.76473945, 0.3305317, 0.4227923, -1.5524837, 3.4807906, -2.9418988
564, 477752264, 0.34398744, -0.77128756, 0.32533056, 0.42538264, 1.3173668, 2.4146576, -2.41469
565, 477768931, 0.33235133, -0.7772706, 0.32035694, 0.42751223, 2.6893542, 0.58701366, -0.18565845
566, 477785598, 0.32239205, -0.7811903, 0.31460345, 0.4322406, 3.7197938, 0.29864997, 4.200263
567, 477802265, 0.3176602, -0.78286576, 0.31174946, 0.43477333, 5.0664344, -0.4575489, 4.43204
568, 477818932, 0.31661168, -0.7834048, 0.31114724, 0.43499842, 7.953303, 1.0032039, 5.1102724
569, 477835599, 0.3178821, -0.7835878, 0.31134406, 0.4335993, 8.992114, 2.5896103, 4.9106665
570, 477852266, 0.32141164, -0.78301144, 0.31455317, 0.4297049, 6.150896, 1.679973, 3.683198
571, 477868933, 0.32880044, -0.7806976, 0.3217498, 0.42294332, 2.0157475, 0.5473305, 2.6831589
572, 477885600, 0.34095544, -0.77510184, 0.33103117, 0.41639784, -1.8653454, 0.64841557, 0.7501688
573, 477902267, 0.35485741, -0.765816, 0.3410672, 0.4138571, -7.06231, 1.9400516, -0.2745962
574, 477918934, 0.36492974, -0.7558056, 0.35178235, 0.41453087, -12.2302475, 2.0203555, 8.848347
575, 477935601, 0.36991993, -0.74895763, 0.35975194, 0.4156953, -0.896392, 0.9171549, -0.8706665
576, 477952268, 0.3754687, -0.7456967, 0.36387685, 0.4129838, 3.815887, 3.4289918, -1.0557585
577, 477968935, 0.38530263, -0.73610914, 0.37229857, 0.41361964, -3.6631644, 1.5687168, -2.5325274
578, 477985602, 0.39053738, -0.7259624, 0.38260034, 0.41722745, -11.117513, -3.0616562, -2.949297
579, 478002269, 0.38785616, -0.7192856, 0.38850182, 0.42575175, -14.647177, -5.876114, -1.0283699
580, 478018936, 0.37566411, -0.7189107, 0.39170507, 0.43429652, -7.0463347, -1.3268462, -3.0563297
581, 478035603, 0.3676749, -0.7146777, 0.39757663, 0.4427032, -0.6373751, 1.3939357, 3.169342
582, 478052270, 0.36055765, -0.7094603, 0.40228593, 0.45258424, 1.2314111, 0.51160705, 2.6288805
583, 478068937, 0.35084918, -0.70488846, 0.4061659, 0.46375522, 0.5477768, -1.4289193, -0.9250164
584, 478085604, 0.34311694, -0.69909537, 0.41124672, 0.4737244, -1.636845, -1.4278837, -0.85236263
585, 478102271, 0.33517313, -0.69344956, 0.4157261, 0.483695, -2.8546672, 0.27223217, 0.027072906
586, 478118938, 0.32734752, -0.6866788, 0.41976452, 0.4950918, -3.1140609, 0.79253495, -0.11652756
587, 478135605, 0.3177554, -0.68052095, 0.42351568, 0.5065173, -1.5902822, -0.8248677, -0.49616432
588, 478152272, 0.30529374, -0.67546844, 0.42629665, 0.5184705, -0.96907794, -0.9922282, -0.35601425
589, 478168939, 0.2909354, -0.6715107, 0.42639527, 0.53161967, -0.2087221, 0.1846492, 0.1385479
590, 478185606, 0.28015572, -0.66574895, 0.42619792, 0.5446548, 1.0883497, 0.60244817, -0.06138611
591, 478202273, 0.2731314, -0.6579139, 0.42827463, 0.5559964, 0.68305683, -0.012235099, -0.7154722
592, 478218940, 0.26588276, -0.6504395, 0.43154383, 0.5656919, 0.6703121, -0.737111, -1.1589327
593, 478235607, 0.257108, -0.6436746, 0.43448702, 0.5751539, 1.2606002, -0.6003133, -1.1131792
594, 478252274, 0.24827638, -0.6371825, 0.43647483, 0.584679, 1.6858546, -0.3177449, -0.5595751
595, 478268941, 0.23965693, -0.6311863, 0.43702918, 0.5942863, 1.2838424, 0.19769666, -0.50994015
596, 478285608, 0.23169294, -0.6252386, 0.43659702, 0.6039708, 1.0725151, -0.30043292, -0.029223442
597, 478302275, 0.22380531, -0.6202629, 0.43396142, 0.61389333, 3.150902, -1.0648646, 0.3071556
598, 478318942, 0.21597914, -0.61659294, 0.4294552, 0.6234877, 4.589286, -0.38953683, -0.08145237
599, 478335609, 0.20981677, -0.6133694, 0.42453745, 0.63208014, 4.4693284, 0.19257206, -0.4861927
600, 478352276, 0.20515504, -0.61029255, 0.42022702, 0.63942647, 4.728459, -0.22686855, -0.105615616
601, 478368943, 0.20264968, -0.60747796, 0.41663983, 0.6452266, 5.2080984, -0.23677644, -0.26872635
602, 478385610, 0.20099945, -0.6051313, 0.41317612, 0.6501564, 4.2181873, -0.6249306, 0.69847965
603, 478402277, 0.19913143, -0.60325825, 0.4086795, 0.6552937, 3.3193421, -0.98092324, 1.6326151
604, 478418944, 0.19722874, -0.601901, 0.40262982, 0.6608386, 4.494092, -1.054687, 1.0619612
605, 478435611, 0.19615835, -0.6009807, 0.39529228, 0.666401, 6.370444, -1.0885342, -0.5960722
606, 478452278, 0.19644137, -0.6002302, 0.38766387, 0.6714562, 8.450971, -1.3232582, -1.8443098
607, 478468945, 0.19864194, -0.60151666, 0.37995192, 0.6740608, 12.056246, -1.2807608, -3.5700355
608, 478485612, 0.20020062, -0.6091318, 0.3682261, 0.6732682, 13.5917225, 1.344949, -4.0640492
609, 478502279, 0.20179085, -0.6227401, 0.35030127, 0.6699006, 10.673305, 3.9192898, -4.0146284
610, 478518946, 0.20878528, -0.6375183, 0.33159876, 0.66334313, 8.563701, 3.568328, -2.5903573
611, 478535613, 0.22041026, -0.6497556, 0.31828505, 0.6541666, 5.765664, 1.078525, 1.3344679
612, 478552280, 0.24054584, -0.65761554, 0.31512156, 0.6406094, 1.4826083, -2.5768843, 7.431141
613, 478568947, 0.26245198, -0.66848594, 0.3167344, 0.61961865, -2.5880861, -6.566515, 5.016362
614, 478585614, 0.27602783, -0.6860817, 0.31199533, 0.59645784, -0.6483556, -4.688846, 3.548726
615, 478602281, 0.28125596, -0.7058927, 0.30151352, 0.5759363, -1.6082952, -2.0244226, 4.634944
616, 478618948, 0.28455257, -0.7251837, 0.29118785, 0.55529296, -2.912084, -1.318448, 3.9609957
617, 478635615, 0.29059592, -0.7423647, 0.2844901, 0.5324626, -3.5232544, 0.67427933, 2.4826107
618, 478652282, 0.29607922, -0.75719285, 0.28020525, 0.5103759, -4.883132, 1.86296, 0.8667908
619, 478668949, 0.30301628, -0.76790166, 0.28111786, 0.48937017, -4.896309, 2.0454354, 0.7882004
620, 478685616, 0.31524438, -0.77333, 0.2866382, 0.46949157, -4.7088127, 2.2637446, 0.7221174
621, 478702283, 0.33393568, -0.77460146, 0.2966485, 0.44775164, -4.525419, 2.52976, -1.0273447
622, 478718950, 0.35578352, -0.7723113, 0.3092808, 0.42579463, -5.8355875, 1.4109362, -3.0093493
623, 478735617, 0.37306994, -0.768911, 0.32020146, 0.40873972, -7.581134, -0.6471057, -4.3036366
624, 478752284, 0.3846406, -0.76482856, 0.32741275, 0.39986536, -8.665787, -2.7504134, -5.2250648
625, 478768951, 0.39124027, -0.76126206, 0.33275306, 0.39583918, -8.974073, -4.228349, -6.6691256
626, 478785618, 0.39096376, -0.75875103, 0.3360631, 0.39813092, -9.931898, -4.246229, -7.0694427
627, 478802285, 0.38245103, -0.7591424, 0.3355423, 0.4060143, -8.722715, -1.6906779, -7.109728
628, 478818952, 0.36308822, -0.76515543, 0.3303272, 0.4166417, -5.531716, 2.645392, -4.7868557
629, 478835619, 0.34371564, -0.77256745, 0.3237458, 0.42448813, -0.08432764, 5.6252947, -2.15132
630, 478852286, 0.3319384, -0.7778894, 0.31956062, 0.42730358, 2.6098537, 3.591459, -0.6954355
631, 478868953, 0.3243319, -0.7810202, 0.31635866, 0.42980894, 5.926077, 1.4969668, 3.3321943
632, 478885620, 0.32001528, -0.7822326, 0.3145579, 0.4321552, 7.5944867, 1.2745688, 5.369996
633, 478902287, 0.32270324, -0.7818362, 0.31520873, 0.4303957, 9.894168, 1.5192287, 5.764351
634, 478918954, 0.33124575, -0.7790334, 0.31828868, 0.42670575, 11.021715, 2.7161026, 6.2026176
635, 478935621, 0.34023836, -0.7762286, 0.32261842, 0.4214579, 8.083668, 1.6894284, 4.0807514
636, 478952288, 0.34928215, -0.7733696, 0.32922325, 0.41414484, 2.3105667, -0.45521006, 2.597149
637, 478968955, 0.35863784, -0.7695125, 0.3374886, 0.4066121, -3.1856678, -0.42064098, 0.4353056
638, 478985622, 0.3688912, -0.76315695, 0.34501317, 0.40308678, -8.639278, 1.1897278, -1.45679
639, 479002289, 0.3810677, -0.7522833, 0.35437632, 0.40407553, -17.062653, 2.5402856, 6.271208
640, 479018956, 0.37547135, -0.7481167, 0.36182278, 0.41040125, -8.466618, -1.5457298, -2.4050217
641, 479035623, 0.3693072, -0.7494608, 0.36045808, 0.41472033, 5.713907, 3.635255, 0.31393814
642, 479052290, 0.3710289, -0.74546367, 0.3656275, 0.41586098, 2.9005642, 2.4064453, 0.86561966
643, 479068957, 0.375354, -0.7354841, 0.3778059, 0.41885272, -5.553051, 0.23262078, -1.1902323
644, 479085624, 0.37804693, -0.7255612, 0.38718748, 0.42512316, -10.45653, -1.9672171, 0.18875599
645, 479102291, 0.3766011, -0.71984166, 0.39255545, 0.43116388, -8.138963, -2.0616794, -2.8587785
646, 479118958, 0.3755789, -0.7124937, 0.40070203, 0.4367307, -3.2169147, -1.3639071, -0.6969538
647, 479135625, 0.37234187, -0.7053536, 0.40682855, 0.44534335, -1.3829197, -1.6682804, 1.6018581
648, 479152292, 0.36766464, -0.69885325, 0.41192457, 0.45469496, -0.23267286, -1.6810744, 0.20771503
649, 479168959, 0.3595662, -0.6939182, 0.4171891, 0.46383756, -2.635297, -2.116046, -0.8576031
650, 479185626, 0.3453587, -0.6929742, 0.41834477, 0.47487283, -3.2297833, -1.6750402, -0.3168249
651, 479202293, 0.3308153, -0.6919266, 0.41780198, 0.48707572, -2.4106214, 1.5890821, 0.51922226
652, 479218960, 0.3201183, -0.687668, 0.41818178, 0.49976328, -1.7799555, 2.9706333, 0.43916988
653, 479235627, 0.3119102, -0.6804456, 0.42029694, 0.5128926, -0.81328297, 0.15996532, -0.30575275
654, 479252294, 0.30194917, -0.67399305, 0.42365122, 0.5244828, -0.23805091, -1.73707, -0.44116402
655, 479268961, 0.29023895, -0.6685589, 0.4259262, 0.5360781, 0.52775186, -0.6384679, -0.44021606
656, 479285628, 0.2808359, -0.6620243, 0.42767024, 0.5476819, 1.129162, 0.23066247, -0.42803955
657, 479302295, 0.27296674, -0.6548386, 0.43019238, 0.5582227, 0.768743, -0.3057511, -0.94096184
658, 479318962, 0.2643337, -0.64826477, 0.4331016, 0.56771994, 1.2403959, -0.60895556, -0.8922272
659, 479335629, 0.25609243, -0.64178157, 0.4349699, 0.57735306, 1.6677518, -0.3942565, -1.0107136
660, 479352296, 0.24815474, -0.6357528, 0.43564782, 0.5868997, 1.4684918, -0.5259767, -0.827508
661, 479368963, 0.24032709, -0.6303718, 0.43496868, 0.5963882, 1.1274879, -0.31332615, -0.09259796
662, 479385630, 0.2324285, -0.6254859, 0.43260315, 0.60630125, 1.8126227, -0.25538814, 0.63409996
663, 479402297, 0.22483191, -0.6209213, 0.42911536, 0.61625475, 2.914397, -0.3118795, 0.90907097
664, 479418964, 0.21801369, -0.6165233, 0.42550886, 0.62555075, 2.8770535, 0.31767136, 0.6762619
665, 479435631, 0.21314967, -0.61131495, 0.42282903, 0.63409746, 3.3944533, 0.18116194, 0.41900826
666, 479452298, 0.20978518, -0.605736, 0.42121574, 0.6416025, 3.9369617, -0.5434977, 0.21735
667, 479468965, 0.20686477, -0.600571, 0.41966036, 0.6483896, 4.2179346, -1.1684786, 0.43191433
668, 479485632, 0.20397076, -0.5963644, 0.4168857, 0.654946, 4.4504027, -1.7040554, 0.4700842
669, 479502299, 0.20081218, -0.59369344, 0.41206136, 0.6613701, 5.7798414, -2.0585263, -0.14479923
670, 479518966, 0.19811194, -0.5926527, 0.40525818, 0.66729516, 7.74138, -2.0435402, -1.0200357
671, 479535633, 0.19703117, -0.5928736, 0.39805353, 0.67174065, 9.922187, -2.0179305, -2.703837
672, 479552300, 0.19861458, -0.596274, 0.39063415, 0.6726194, 12.985119, -0.874148, -4.290564
673, 479568967, 0.20045519, -0.60523903, 0.37929252, 0.67055434, 14.070975, 1.7784113, -3.510961
674, 479585634, 0.20143023, -0.61987054, 0.36160418, 0.666657, 10.577833, 4.6150355, -2.5067725
675, 479602301, 0.20552027, -0.63606745, 0.34235156, 0.660286, 6.7182336, 4.5534067, -0.9542217
676, 479618968, 0.21797392, -0.64751154, 0.331425, 0.6506736, 4.4851165, 0.82367855, 1.9001179
677, 479635635, 0.23841807, -0.6546462, 0.33061603, 0.63662446, 0.44126844, -3.0592616, 6.1201906
678, 479652302, 0.25762072, -0.66611814, 0.32983658, 0.6173561, -1.6111653, -3.713708, 4.9099855
679, 479668969, 0.27058303, -0.68280214, 0.32325506, 0.5967198, 0.77710915, -2.6583254, 3.5310144
680, 479685636, 0.27908033, -0.69963276, 0.31388843, 0.578018, -0.2649636, -2.1625419, 4.132985
681, 479702303, 0.2859747, -0.7161532, 0.30506253, 0.5588221, -2.6574256, -1.2703526, 3.6167793
682, 479718970, 0.29433024, -0.73138314, 0.2994208, 0.53739935, -4.0447364, -0.07197486, 1.9879293
683, 479735637, 0.30408332, -0.7436492, 0.29603246, 0.5166107, -5.380304, 1.1017776, 0.87112904
684, 479752304, 0.31435895, -0.7528596, 0.29558763, 0.49700248, -5.2300987, 1.6684612, 0.23952293
685, 479768971, 0.32722062, -0.75873226, 0.30006486, 0.4766713, -3.8631058, 1.4438784, -0.3057394
686, 479785638, 0.34412926, -0.761297, 0.31085137, 0.45318437, -3.6821175, 0.42529622, -1.3756695
687, 479802305, 0.3598423, -0.76144195, 0.32253388, 0.43208104, -5.7635674, -0.43587604, -3.1551304
688, 479818972, 0.36780828, -0.76169693, 0.32840347, 0.42034325, -7.575303, -1.7116942, -4.7685647
689, 479835639, 0.36969814, -0.7630631, 0.33104315, 0.41409048, -7.8980455, -2.5437763, -5.8794446
690, 479852306, 0.3702728, -0.7631347, 0.33370122, 0.41130224, -8.20962, -1.7607621, -5.912883
691, 479868973, 0.3698346, -0.7619079, 0.33494306, 0.41295803, -8.051925, -0.31148586, -5.5912514
692, 479885640, 0.36534032, -0.7621776, 0.3316677, 0.41905951, -6.004345, 2.0975916, -5.428077
693, 479902307, 0.35181436, -0.7677471, 0.32364845, 0.42666742, -2.5719793, 3.38266, -3.7488294
694, 479918974, 0.33789703, -0.77527237, 0.31720662, 0.42913952, 0.846572, 1.5206304, -1.2327957
695, 479935641, 0.32886842, -0.7806624, 0.31436405, 0.4284734, 2.351049, 1.1098572, 1.0274
696, 479952308, 0.3175525, -0.78571725, 0.31069392, 0.43044242, 3.5779908, 1.5672612, 2.033865
697, 479968975, 0.3131517, -0.78691965, 0.3078699, 0.43348846, 5.573643, 2.2143056, 3.6161451
698, 479985642, 0.3160311, -0.7858201, 0.30873716, 0.43277594, 8.187337, 1.5643971, 4.8966913
699, 480002309, 0.32050356, -0.78442097, 0.31138942, 0.43011683, 7.5114293, 0.970276, 5.151698
700, 480018976, 0.32590088, -0.7831028, 0.31564286, 0.42533594, 4.97425, 0.68026215, 3.7626667
701, 480035643, 0.33279955, -0.7811077, 0.32156596, 0.41918123, 1.5683385, -0.22126643, 2.778225
702, 480052310, 0.3436923, -0.77615404, 0.32976595, 0.41317955, -2.1979494, 0.3141734, 1.0370054
703, 480068977, 0.35579452, -0.7677962, 0.33857912, 0.4114193, -7.7913337, 1.7754837, -0.32691574
704, 480085644, 0.3647774, -0.7580878, 0.34804955, 0.4136476, -14.1816025, 2.1131535, 8.949991
705, 480102311, 0.3638658, -0.7529396, 0.35517785, 0.4177736, -3.0991492, 1.0621718, -1.4577694
706, 480118978, 0.3630449, -0.752494, 0.35701242, 0.4177272, 5.7876644, 6.291171, 0.7923145
707, 480135645, 0.36661005, -0.74610966, 0.36342645, 0.4205246, -1.3667716, 2.2958405, -2.0777063
708, 480152312, 0.37041748, -0.7369271, 0.37281415, 0.42513672, -9.94514, -2.879664, -3.0287495
709, 480168979, 0.3714596, -0.72820306, 0.37966654, 0.43312126, -14.58031, -7.1771946, -0.74809265
710, 480185646, 0.36604553, -0.72426134, 0.38553432, 0.439115, -5.978137, -1.084889, -3.263977
711, 480202313, 0.3605337, -0.71977556, 0.39119703, 0.44598895, 0.794952, 0.40001556, 2.5184355
712, 480218980, 0.35496107, -0.71378344, 0.39683622, 0.4550161, -0.28999275, -0.62259376, 1.829279
713, 480235647, 0.3467273, -0.7077957, 0.40219206, 0.46588612, -1.865774, 0.6275533, -0.54844
714, 480252314, 0.3402234, -0.70096713, 0.40756768, 0.47621876, -3.2775857, -0.008150511, 0.4038992
715, 480268981, 0.3323579, -0.69531626, 0.41067284, 0.48726174, -2.408502, -0.6087582, 0.68851376
716, 480285648, 0.32302445, -0.68991464, 0.412425, 0.4995809, -1.591786, -0.29370064, -0.19925022
717, 480302315, 0.31420106, -0.68323916, 0.41585058, 0.511403, -1.942014, -0.45273343, -0.053585052
718, 480318982, 0.30257377, -0.67691773, 0.41846782, 0.52451783, -1.8281338, -1.99539, -0.62050056
719, 480335649, 0.2861129, -0.6729575, 0.42005628, 0.5374227, -1.1530232, -2.366523, -0.9254303
720, 480352316, 0.2682331, -0.6701698, 0.41872144, 0.5509977, 0.55151767, -0.5569987, 0.097174644
721, 480368983, 0.25643802, -0.66449755, 0.41725722, 0.56443024, 2.397088, 1.0442547, -0.56487274
722, 480385650, 0.24878044, -0.6573319, 0.41822988, 0.5754212, 2.8500082, 0.24087566, -1.7964573
723, 480402317, 0.24109176, -0.6507067, 0.4205389, 0.5844701, 2.966042, -0.64365095, -1.9051142
724, 480418984, 0.23282753, -0.64496624, 0.42263952, 0.59261155, 2.7188835, -0.9941074, -1.7159586
725, 480435651, 0.2255724, -0.6398776, 0.4232981, 0.6004126, 2.5518975, -0.877424, -2.4368858
726, 480452318, 0.21916787, -0.63524586, 0.42327547, 0.6076748, 2.1784534, -0.8682188, -1.801569
727, 480468985, 0.21242975, -0.6311716, 0.42237505, 0.61489683, 2.0712812, -0.4558301, 0.35280514
728, 480485652, 0.20479035, -0.627855, 0.419282, 0.62294817, 2.2158124, 0.31598273, 1.4011745
729, 480502319, 0.19839787, -0.623975, 0.4158957, 0.63113165, 2.062296, 1.5756228, 1.0912437
730, 480518986, 0.1948694, -0.61904275, 0.4139091, 0.63835263, 3.474857, 1.3374903, 0.99163055
731, 480535653, 0.1936796, -0.6136779, 0.41279745, 0.6445839, 4.073287, 0.28001145, 0.62557983
732, 480552320, 0.1932868, -0.60854673, 0.4119404, 0.6500914, 4.090366, -0.91320467, 1.051117
733, 480568987, 0.19227813, -0.6042714, 0.41003177, 0.6555622, 4.1933756, -1.7025355, 1.4824553
734, 480585654, 0.190272, -0.6015522, 0.405744, 0.6612911, 5.692571, -2.0681944, 0.49020672
735, 480602321, 0.18871677, -0.6005048, 0.39903206, 0.6667504, 8.196153, -2.1095917, -1.1358385
736, 480618988, 0.18837307, -0.6008415, 0.39113835, 0.6712068, 10.768875, -2.1221278, -2.3199859
737, 480635655, 0.190588, -0.60438865, 0.38156092, 0.67290753, 14.866026, -0.67580664, -3.882928
738, 480652322, 0.1922686, -0.61509985, 0.36688885, 0.6708804, 15.31462, 3.4404213, -3.7287617
739, 480668989, 0.19326504, -0.63089377, 0.3457647, 0.66713655, 10.175227, 6.916866, -2.8275933
740, 480685656, 0.20162153, -0.64533824, 0.32881367, 0.65937215, 7.1244516, 4.224417, -1.3572407
741, 480702323, 0.21949413, -0.65347064, 0.32374653, 0.6480659, 4.0858936, -0.7546653, 3.5348787
742, 480718990, 0.24583891, -0.65819335, 0.32717833, 0.6319033, -2.0550635, -6.0781236, 7.6696777
743, 480735657, 0.26736966, -0.6718451, 0.32656565, 0.6086832, -2.2546368, -6.238103, 3.6494303
744, 480752324, 0.2785847, -0.690221, 0.31955665, 0.5864058, 1.6424469, -3.772473, 4.051779
745, 480768991, 0.28417465, -0.70872164, 0.31010735, 0.5663874, -1.5149704, -3.035516, 4.7743645
746, 480785658, 0.28890026, -0.7266839, 0.30321693, 0.544545, -4.2443237, -0.40657878, 3.674426
747, 480802325, 0.29724824, -0.74074394, 0.29921898, 0.5228887, -5.684687, 2.110915, 1.7398558
748, 480818992, 0.30973375, -0.7502027, 0.29987845, 0.50133485, -5.2103114, 2.4041002, 1.2282104
749, 480835659, 0.32783052, -0.75480235, 0.30695066, 0.478105, -4.2649813, 1.9653255, 0.4569788
750, 480852326, 0.34901422, -0.75589705, 0.31904, 0.45279667, -4.510406, 0.4460685, -1.5735378
751, 480868993, 0.365647, -0.75595313, 0.33073512, 0.43064386, -6.3001943, -0.94041187, -3.2585244
752, 480885660, 0.37456155, -0.7560549, 0.33666712, 0.41802216, -8.306451, -1.6772556, -4.72344
753, 480902327, 0.37872964, -0.7558716, 0.33802497, 0.41347754, -8.349865, -2.4638407, -5.862774
754, 480918994, 0.37984285, -0.7554865, 0.33797675, 0.41319954, -8.667477, -3.4171968, -6.2975426
755, 480935661, 0.3785184, -0.754778, 0.33799475, 0.41568738, -8.871185, -1.2954113, -6.47412
756, 480952328, 0.3710452, -0.75655174, 0.33526474, 0.42137283, -6.70646, 1.7327151, -5.694235
757, 480968995, 0.3582583, -0.7622778, 0.329472, 0.42665526, -2.3973644, 4.38896, -4.0862575
758, 480985662, 0.34697676, -0.76873875, 0.32542256, 0.42749348, 0.019049674, 3.5072446, -3.030429
759, 481002329, 0.33124742, -0.7772983, 0.31922734, 0.42916113, 1.489553, -0.14714953, -0.5029173
760, 481018996, 0.3199134, -0.7822985, 0.31411844, 0.43243128, 3.2569919, 0.6142221, 3.0544596
761, 481035663, 0.31903374, -0.781902, 0.31454355, 0.433488, 3.9505558, 1.1484038, 2.8023415
762, 481052330, 0.32403672, -0.77943426, 0.3186553, 0.43121198, 6.568991, 0.35765022, 4.73172
763, 481068997, 0.32858643, -0.77761745, 0.32116562, 0.42918223, 8.533594, 2.4072905, 5.5015326
764, 481085664, 0.33343634, -0.77542454, 0.3242032, 0.42712066, 6.6413846, 2.0054553, 3.8424816
765, 481102331, 0.3405476, -0.7727499, 0.33031195, 0.42164168, 1.9631853, -0.47083563, 3.132146
766, 481118998, 0.34953865, -0.76921135, 0.33790293, 0.414682, -1.3650682, -0.9446489, 2.0583315
767, 481135665, 0.36017916, -0.7636006, 0.34573624, 0.40945587, -4.951912, 0.8801028, 0.17230415
768, 481152332, 0.37207797, -0.754101, 0.3538403, 0.409499, -10.515802, 4.5084124, 7.573448
769, 481168999, 0.37807563, -0.74567705, 0.3634245, 0.4110352, -6.384787, 0.42140606, 0.3778391
770, 481185666, 0.37975618, -0.74277735, 0.36798495, 0.41067863, 4.5860057, 3.8060136, -1.3053436
771, 481202333, 0.3849427, -0.7361296, 0.375046, 0.41143116, -0.101704426, 2.402267, -1.7967854
772, 481219000, 0.39184132, -0.7260941, 0.38515612, 0.4134069, -7.5113873, -1.4101325, -1.3095169
773, 481235667, 0.39177236, -0.71901107, 0.39186037, 0.4195068, -12.72669, -4.4297843, -1.072093
774, 481252334, 0.38411146, -0.7170707, 0.3950305, 0.4268743, -9.933567, -3.1606445, -3.7623467
775, 481269001, 0.37607956, -0.71385825, 0.4007589, 0.43401134, -3.3033426, 1.0754619, 0.7803459
776, 481285668, 0.36777264, -0.70938444, 0.4059967, 0.4434937, -1.2737366, 0.58996314, 3.0784798
777, 481302335, 0.35868478, -0.70424545, 0.41011512, 0.45518324, -0.2725233, -0.65910906, 0.43403244
778, 481319002, 0.3519951, -0.6970706, 0.4155579, 0.46637565, -2.2785537, -0.9635717, -0.31741238
779, 481335669, 0.3429795, -0.69184303, 0.41849193, 0.47810635, -2.1826222, -1.3422925, 0.30935955
780, 481352336, 0.33232638, -0.6870847, 0.42117375, 0.4899892, -1.710002, 0.5523611, -0.28439903
781, 481369003, 0.32100073, -0.68183416, 0.42388254, 0.50238156, -1.7933737, 0.40864202, -0.0809536
782, 481385670, 0.30903408, -0.67595613, 0.4262193, 0.5156753, -2.5206692, -0.8308199, -0.14765835
783, 481402337, 0.29472327, -0.6707888, 0.42819044, 0.5289955, -2.2379413, -1.3044482, -0.030104637
784, 481419004, 0.28001714, -0.6662637, 0.42792752, 0.5427374, 0.52679557, -0.28865513, 0.6353731
785, 481435671, 0.26940578, -0.65955746, 0.42788312, 0.5561685, 1.1311697, 0.11906982, -0.29279232
786, 481452338, 0.26003066, -0.65217006, 0.42951718, 0.5679575, 0.98432446, -0.39446372, -1.1252432
787, 481469005, 0.25049198, -0.6453155, 0.43142828, 0.57852757, 1.7821687, -0.945705, -1.4747248
788, 481485672, 0.24112189, -0.63885224, 0.43280995, 0.58856285, 2.1346078, -0.9648416, -1.4629993
789, 481502339, 0.23262244, -0.63317347, 0.43262506, 0.5981776, 2.3297684, -0.18728955, -1.4328232
790, 481519006, 0.2254635, -0.62806433, 0.43092513, 0.6074599, 2.506322, -0.24977572, -0.92092896
791, 481535673, 0.21928024, -0.6234088, 0.4285664, 0.6161258, 3.520583, -0.3574046, -0.4481125
792, 481552340, 0.21302806, -0.6194983, 0.426027, 0.62397486, 3.7626019, -0.22430217, 0.41880512
793, 481569007, 0.20719181, -0.61587197, 0.42297003, 0.6315636, 3.0537624, 0.32341385, 0.6675596
794, 481585674, 0.20282474, -0.6121002, 0.41955623, 0.6388825, 3.4108725, -0.04327032, 0.07309914
795, 481602341, 0.19985238, -0.6083975, 0.41639927, 0.64538825, 3.912556, -0.5500971, -0.003435135
796, 481619008, 0.19793318, -0.6048396, 0.41349083, 0.65116787, 3.8842344, -0.5067834, 0.35609818
797, 481635675, 0.19591075, -0.60150933, 0.4101716, 0.6569381, 3.6077268, -0.608537, 1.1162157
798, 481652342, 0.19361457, -0.59860814, 0.40599057, 0.6628395, 3.853231, -1.1368294, 1.2722788
799, 481669009, 0.19148947, -0.5964421, 0.4004631, 0.66874564, 5.3723044, -1.1108799, 0.002790451
800, 481685676, 0.1904179, -0.5948862, 0.39359766, 0.6744886, 7.4460516, -1.873777, -1.4607525
801, 481702343, 0.19033659, -0.59513503, 0.38561505, 0.6788889, 10.320911, -1.5062726, -2.9891286
802, 481719010, 0.19177449, -0.60000783, 0.37392983, 0.6807292, 13.526076, 0.6154322, -3.6915812
803, 481735677, 0.19081423, -0.61219364, 0.35450697, 0.6805412, 12.681704, 5.394084, -2.9310155
804, 481752344, 0.19131008, -0.62741894, 0.32979771, 0.6789565, 6.9441733, 5.5216465, -2.6016994
805, 481769011, 0.20132548, -0.6392067, 0.31303, 0.6729768, 4.6302986, 0.58377886, -0.99707985
806, 481785678, 0.22075503, -0.6449348, 0.30858135, 0.66340536, 2.2304947, -3.3954363, 3.9989023
807, 481802345, 0.24508606, -0.6524764, 0.31073892, 0.64625967, 1.321424, -3.9804041, 5.3265076
808, 481819012, 0.26495072, -0.6676358, 0.3083, 0.6237126, 3.998751, -1.9067978, 4.3272686
809, 481835679, 0.2786942, -0.6833125, 0.3035491, 0.6027224, 2.2827444, -3.0917618, 3.5399265
810, 481852346, 0.28725904, -0.7000823, 0.2971508, 0.5822982, -2.119128, -2.436917, 4.427642
811, 481869013, 0.2917855, -0.71852005, 0.29095384, 0.5603022, -4.1805506, -0.834401, 3.3952332
812, 481885680, 0.29833302, -0.7344537, 0.28915873, 0.5366239, -4.6305814, 0.044477627, 1.6459188
813, 481902347, 0.30808124, -0.7465905, 0.29007787, 0.51336753, -5.3834515, 0.73328054, 0.75901985
814, 481919014, 0.3205919, -0.75413245, 0.293673, 0.4922032, -5.409257, 1.045425, 0.5437641
815, 481935681, 0.33669874, -0.75714004, 0.30075645, 0.47214526, -4.697489, 1.0174655, -0.17276192
816, 481952348, 0.35554236, -0.75730586, 0.31220594, 0.45011953, -4.549175, 0.6740803, -2.1388202
817, 481969015, 0.37263516, -0.75588816, 0.3243661, 0.42961088, -5.6517153, -0.26102, -3.612337
818, 481985682, 0.38189638, -0.755793, 0.33187634, 0.41568395, -7.3493795, -1.4813539, -4.479786
819, 482002349, 0.38479674, -0.7564296, 0.33493683, 0.40934774, -8.776604, -2.6754265, -5.8777895
820, 482019016, 0.3846249, -0.7567851, 0.3363237, 0.407712, -8.840017, -2.8936296, -6.2787685
821, 482035683, 0.38208938, -0.7562548, 0.33721885, 0.41033232, -9.155426, -2.4793308, -6.283182
822, 482052350, 0.374944, -0.7565324, 0.33529177, 0.41792122, -7.609764, -9.4484515E-4, -5.68337
823, 482069017, 0.35893333, -0.7614428, 0.3302454, 0.4269806, -4.3301144, 3.7337646, -3.4894323
824, 482085684, 0.34212264, -0.7676117, 0.32516974, 0.43358013, 0.91081417, 4.6938806, -1.070466
825, 482102351, 0.33500752, -0.76993763, 0.32468337, 0.43537295, 3.8498814, 2.5603533, -0.31550312
826, 482119018, 0.3305061, -0.7708004, 0.32632405, 0.4360596, 5.447562, 0.9384916, 1.9856272
827, 482135685, 0.32560992, -0.77127, 0.3250496, 0.43984836, 4.9823103, 1.1334444, 4.240018
828, 482152352, 0.32607108, -0.77051, 0.32469568, 0.44109806, 8.301445, 0.65267795, 5.431592
829, 482169019, 0.33234245, -0.7686182, 0.32749417, 0.43763596, 10.730573, 0.98088527, 6.2596073
830, 482185686, 0.33977902, -0.76702297, 0.33206454, 0.43123317, 8.888522, 0.90585196, 4.5523853
831, 482202353, 0.34909445, -0.7645707, 0.33927482, 0.42244574, 3.2814786, 0.3867981, 2.4158201
832, 482219020, 0.36065966, -0.75969034, 0.34799176, 0.41436675, -2.2959104, 0.82840705, 0.18761635
833, 482235687, 0.37241387, -0.7518134, 0.35649946, 0.41109076, -8.095352, 2.71934, -1.0133848
834, 482252354, 0.3824251, -0.7412446, 0.36801708, 0.4109429, -16.844275, 2.0835416, 9.022198
835, 482269021, 0.381506, -0.73536336, 0.3760591, 0.4150619, -5.012979, -0.8138526, -2.9529147
836, 482285688, 0.37987405, -0.73601645, 0.37609252, 0.4153708, 6.577168, 4.119638, -0.56673145
837, 482302355, 0.38308012, -0.7308689, 0.3814675, 0.41661257, -0.43076143, 0.7493377, -1.0628042
838, 482319022, 0.3907365, -0.71864814, 0.39390033, 0.41918427, -9.05118, -2.594517, -1.4537573
839, 482335689, 0.39514923, -0.7082691, 0.403851, 0.4232249, -13.528785, -3.6170328, -0.04583931
840, 482352356, 0.3880089, -0.7057185, 0.4081261, 0.4299381, -6.070691, -0.8412434, -1.282567
841, 482369023, 0.3794205, -0.7021195, 0.41355866, 0.4382244, -3.3394604, -1.7759806, -0.17920399
842, 482385690, 0.36995584, -0.6977679, 0.41849235, 0.4484639, -2.458452, -0.07978799, 1.8840075
843, 482402357, 0.36163458, -0.69213104, 0.42262697, 0.45996153, -1.3038551, 0.5427062, 0.12006569
844, 482419024, 0.35283026, -0.68740386, 0.42624515, 0.4704303, -1.5238919, -1.3577256, -0.43786812
845, 482435691, 0.34097648, -0.6847204, 0.4272833, 0.48200113, -1.9533482, -0.99217, 0.12822533
846, 482452358, 0.3290409, -0.6815139, 0.42866212, 0.49348, -2.132647, 1.218118, 0.42742634
847, 482469025, 0.31739303, -0.67696095, 0.43059674, 0.5055441, -2.4425728, 0.52440417, -0.15215969
848, 482485692, 0.30446234, -0.6720617, 0.43179235, 0.5188393, -1.8294085, -1.196834, -0.39712334
849, 482502359, 0.29094732, -0.6675904, 0.43202013, 0.5320096, -0.016186586, -0.6062362, 0.134552
850, 482519026, 0.28102592, -0.66163105, 0.43148988, 0.5450579, 1.9442348, 0.5487782, -0.2838974
851, 482535693, 0.2733907, -0.65516204, 0.43244845, 0.555888, 2.1498492, -0.28768152, -1.4377975
852, 482552360, 0.26443568, -0.64965755, 0.43406042, 0.56534344, 1.1796821, -0.94315773, -1.0096045
853, 482569027, 0.25516897, -0.6442519, 0.43476427, 0.5751621, 1.3812556, -0.5034587, -0.9586868
854, 482585694, 0.24663416, -0.63915336, 0.4351514, 0.58420956, 1.8888615, -0.6607365, -1.2355146
855, 482602361, 0.23887342, -0.63459283, 0.4344086, 0.59289426, 1.954686, -4.172987E-4, -1.0612707
856, 482619028, 0.23171756, -0.62998617, 0.43304935, 0.60157776, 1.3703634, 0.25667858, 0.24368572
857, 482635695, 0.22424923, -0.6252801, 0.4310778, 0.6106655, 1.5944653, -0.3277254, 1.3420391
858, 482652362, 0.2175219, -0.6205736, 0.42801672, 0.6199818, 2.8299646, 0.03980587, 0.70611477
859, 482669029, 0.21152723, -0.61586297, 0.42481017, 0.62889475, 2.7413845, 0.157696, 0.6396923
860, 482685696, 0.20649646, -0.6107332, 0.42179978, 0.6375361, 3.1355703, 0.14320497, 0.6599703
861, 482702363, 0.20250767, -0.60540533, 0.41957635, 0.6453169, 3.6326053, -0.46257237, 0.28634167
862, 482719030, 0.19903015, -0.60053825, 0.41692424, 0.6526241, 3.8380895, -0.8636661, 0.7991152
863, 482735697, 0.19592704, -0.5963504, 0.41294459, 0.659893, 4.0321507, -1.0221629, 0.6346493
864, 482752364, 0.19316149, -0.59293866, 0.40808895, 0.66676754, 4.7395797, -1.2665125, 0.63868904
865, 482769031, 0.19090351, -0.5904251, 0.40211296, 0.67324764, 5.9214745, -1.6600662, -0.38438034
866, 482785698, 0.18958569, -0.589278, 0.39493012, 0.6788536, 8.184585, -1.9534525, -2.2243342
867, 482802365, 0.18948083, -0.5901105, 0.38656113, 0.6829644, 10.649946, -1.935998, -3.6321006
868, 482819032, 0.19176398, -0.59559304, 0.3754093, 0.6837883, 14.992712, -0.5260485, -4.9549084
869, 482835699, 0.19290154, -0.6082763, 0.3582579, 0.6815008, 13.615392, 3.9088929, -4.406564
870, 482852366, 0.19546047, -0.62450624, 0.33669993, 0.6770698, 8.131381, 5.1659255, -3.8082628
871, 482869033, 0.20562167, -0.6379412, 0.32164872, 0.66880196, 6.003653, 1.3478748, -1.4651136
872, 482885700, 0.22333097, -0.64440155, 0.31712002, 0.6590205, 2.8099325, -2.6900983, 4.982627
873, 482902367, 0.24657048, -0.6523917, 0.32011032, 0.64118695, -0.9927354, -5.9002867, 7.05105
874, 482919034, 0.26472378, -0.66796696, 0.3187494, 0.61817753, 0.58634615, -2.997079, 4.0958843
875, 482935701, 0.2759207, -0.683936, 0.31282422, 0.5985344, 1.3049681, -2.8213494, 3.4743242
876, 482952368, 0.2838506, -0.6993568, 0.30650336, 0.5799894, -1.5539627, -2.475293, 4.1864758
877, 482969035, 0.29214588, -0.7146374, 0.30406874, 0.5581122, -3.342696, -1.1825328, 3.2279234
878, 482985702, 0.30287197, -0.7274804, 0.3047747, 0.5349358, -4.361508, 1.1479534, 1.8449364
879, 483002369, 0.3158482, -0.7367919, 0.3076223, 0.5125906, -4.5186915, 1.7518835, 1.2374487
880, 483019036, 0.33134663, -0.74258035, 0.31408784, 0.49003652, -4.1269197, 1.0670979, 0.71149635
881, 483035703, 0.34786013, -0.7465667, 0.32390055, 0.46553522, -4.6794577, 0.78722715, -0.30812454
882, 483052370, 0.3634646, -0.7483589, 0.3335738, 0.44337788, -6.1289954, 0.91046494, -2.0195923
883, 483069037, 0.37377656, -0.7500674, 0.33847186, 0.42793685, -6.869443, -0.07737292, -4.0533633
884, 483085704, 0.37809134, -0.7528983, 0.34029704, 0.41760296, -8.003137, -0.70379615, -5.4397063
885, 483102371, 0.38082692, -0.7543492, 0.34185103, 0.41118044, -8.800585, -0.31584248, -5.483789
886, 483119038, 0.3830124, -0.75402826, 0.34314632, 0.40865213, -8.97099, -0.6023033, -5.259173
887, 483135705, 0.38222498, -0.75289893, 0.34243718, 0.4120525, -8.758931, -0.6459521, -5.4817805
888, 483152372, 0.37456328, -0.7541981, 0.33880928, 0.41964155, -7.001693, 1.299204, -5.76628
889, 483169039, 0.354597, -0.7618166, 0.3313892, 0.4290465, -2.634138, 2.6583796, -3.3916483
890, 483185706, 0.3383616, -0.76850325, 0.32599962, 0.43432906, 2.58715, 2.5288646, -0.60993195
891, 483202373, 0.33117217, -0.77142, 0.3242259, 0.43602395, 5.0277915, 0.8286533, 0.7871027
892, 483219040, 0.32390568, -0.77379775, 0.3213384, 0.43939376, 4.47713, 1.383715, 2.9888525
893, 483235707, 0.32003918, -0.77487797, 0.31759515, 0.44302976, 6.47238, 0.5405822, 5.886734
894, 483252374, 0.32256046, -0.7743617, 0.31755263, 0.44213355, 10.240262, -0.5052153, 7.0179844
895, 483269041, 0.3295384, -0.77239686, 0.3204626, 0.43830833, 10.097984, 1.5120428, 5.5771656
896, 483285708, 0.33800846, -0.77000314, 0.32599977, 0.43194067, 6.1521254, 1.2229811, 3.512702
897, 483302375, 0.34967545, -0.765088, 0.33442172, 0.4248911, 0.88479716, 1.058767, 1.2562437
898, 483319042, 0.36214888, -0.757781, 0.34389454, 0.4199471, -4.4956923, 0.7023254, -1.4152374
899, 483335709, 0.37305045, -0.7481961, 0.35339564, 0.41970277, -11.043858, 2.709193, 3.9283428
900, 483352376, 0.3790825, -0.73959804, 0.36481544, 0.41976655, -11.814769, -0.2577414, 2.055932
901, 483369043, 0.38188377, -0.7359296, 0.36813736, 0.42077368, 3.0690958, 2.3574107, -2.301085
902, 483385710, 0.3834842, -0.7336934, 0.37156287, 0.42021173, 1.1083207, 1.3161412, -1.1879387
903, 483402377, 0.39075404, -0.72433954, 0.3811986, 0.42111066, -4.8440666, -1.3495122, -1.4871321
904, 483419044, 0.39378896, -0.71448725, 0.39118323, 0.42593056, -13.8526125, -4.41709, -0.3327999
905, 483435711, 0.3849009, -0.71306366, 0.39456728, 0.4332567, -11.282112, -2.1660101, -2.1549492
906, 483452378, 0.37216946, -0.7120213, 0.39823237, 0.4426394, -5.3830814, -1.1252601, -0.14504051
907, 483469045, 0.36105287, -0.7085762, 0.40270394, 0.4532033, -3.0203176, 1.414483, 2.3619032
908, 483485712, 0.3521369, -0.7033508, 0.40588176, 0.4653605, 0.12605214, 0.71192855, 2.8809214
909, 483502379, 0.34702563, -0.6951648, 0.41010857, 0.47763288, -1.5959158, 0.359397, -0.63668156
910, 483519046, 0.340796, -0.6872815, 0.415712, 0.48855788, -3.294691, -1.1019313, -0.17484093
911, 483535713, 0.33027837, -0.6814465, 0.41997722, 0.500169, -3.5461032, -1.0650735, 0.12097359
912, 483552380, 0.31733918, -0.67636687, 0.42239746, 0.5132322, -3.295614, -0.59425986, -0.620677
913, 483569047, 0.3022551, -0.6720461, 0.42181098, 0.52827513, -1.8451738, -1.0434754, -0.007910728
914, 483585714, 0.28696483, -0.6676706, 0.4206131, 0.54309773, 0.044317257, -0.9340246, -0.085409164
915, 483602381, 0.27479762, -0.6615005, 0.4194634, 0.5576353, 1.0720376, 0.6048996, -0.4030094
916, 483619048, 0.26528606, -0.65467364, 0.41975293, 0.5699441, 2.259759, -0.3062438, -1.3093634
917, 483635715, 0.25648263, -0.6483563, 0.42104417, 0.5801513, 2.8688955, -0.582091, -1.2320776
918, 483652382, 0.24883261, -0.64197624, 0.42255145, 0.5894083, 2.9966252, -0.24951713, -1.2404175
919, 483669049, 0.24196456, -0.6358857, 0.42379642, 0.59791493, 2.399041, -0.4241214, -1.4545927
920, 483685716, 0.2355118, -0.63068366, 0.424004, 0.60580194, 2.2406557, -0.18843976, -1.4104948
921, 483702383, 0.22994107, -0.6261174, 0.42349607, 0.61299133, 2.679521, -0.37998945, -0.37906456
922, 483719050, 0.22497399, -0.62207866, 0.42215323, 0.6198344, 2.6660542, -0.22799999, 0.27705956
923, 483735717, 0.22012067, -0.6182806, 0.42008528, 0.62674356, 2.4813693, 0.09077845, 0.571126
924, 483752384, 0.21501434, -0.61505544, 0.41726583, 0.6335362, 2.3639798, -0.2402116, 0.97070885
925, 483769051, 0.21012907, -0.61234885, 0.41303343, 0.6405321, 2.8880723, -0.39750037, 0.8869381
926, 483785718, 0.20603506, -0.6099583, 0.40798238, 0.6473439, 3.717404, -0.1876293, 0.053811073
927, 483802385, 0.20360686, -0.60748184, 0.40349534, 0.6532265, 4.9753146, -0.16305539, -0.63008785
928, 483819052, 0.20237356, -0.605172, 0.40004826, 0.65785736, 4.854789, -0.84008884, -0.635005
929, 483835719, 0.20192501, -0.6035841, 0.3965772, 0.6615453, 5.238419, -1.2910495, -0.48990726
930, 483852386, 0.20161504, -0.6032897, 0.39178258, 0.66475767, 6.163468, -1.7004265, -0.8644762
931, 483869053, 0.20227784, -0.60419244, 0.3851481, 0.66760725, 8.055705, -1.6029648, -1.6326866
932, 483885720, 0.2038884, -0.6064662, 0.3773948, 0.669481, 10.332492, -1.4962626, -3.1667194
933, 483902387, 0.20548438, -0.6143033, 0.36655274, 0.6678697, 13.053938, -0.6731075, -4.032788
934, 483919054, 0.20349726, -0.63098997, 0.34531537, 0.6642298, 11.447362, 4.6858, -3.66076
935, 483935721, 0.20607632, -0.64900964, 0.32069564, 0.65838945, 8.406255, 5.777481, -2.0461063
936, 483952388, 0.21478575, -0.6628756, 0.30194226, 0.6506129, 4.7917604, 2.4111943, 2.0165749
937, 483969055, 0.23350677, -0.67023826, 0.2950288, 0.6397004, 0.08567989, -2.6827688, 9.749699
938, 483985722, 0.2581064, -0.679401, 0.29482487, 0.6203845, -3.4561133, -7.6369996, 6.5138493
939, 484002389, 0.2755513, -0.6947983, 0.29153177, 0.5969416, 0.5204772, -5.2198915, 3.7596445
940, 484019056, 0.28487685, -0.7111487, 0.2856664, 0.5757697, -0.1987423, -3.1898808, 4.222924
941, 484035723, 0.29104793, -0.72712314, 0.27876073, 0.55576885, -3.1419644, -1.6692464, 3.682909
942, 484052390, 0.29674888, -0.742589, 0.2729252, 0.5348056, -4.2340517, -0.15375803, 2.3084927
943, 484069057, 0.30232, -0.7562051, 0.26930162, 0.5140395, -5.1918936, 0.97339153, 0.49488068
944, 484085724, 0.30793172, -0.7665819, 0.26941878, 0.4949213, -5.6860657, 1.1888285, -0.12771797
945, 484102391, 0.317412, -0.7718427, 0.27374515, 0.4780959, -5.4304137, 1.8638732, -0.55578804
946, 484119058, 0.33269757, -0.77252805, 0.2827144, 0.46107343, -4.908308, 1.9659498, -1.8065825
947, 484135725, 0.35068583, -0.7705482, 0.29556832, 0.44262606, -4.9229493, 0.6088181, -3.3463454
948, 484152392, 0.36620674, -0.76711965, 0.30933982, 0.4263008, -6.253314, -0.67326355, -4.69068
949, 484169059, 0.3766396, -0.762567, 0.319712, 0.41763875, -7.030673, -1.6449224, -5.3948817
950, 484185726, 0.3826606, -0.75828743, 0.3274602, 0.41393766, -7.18516, -2.4023795, -6.7141447
951, 484202393, 0.38318676, -0.7548027, 0.33254096, 0.41576558, -7.857556, -2.4068964, -6.6303406
952, 484219060, 0.37780195, -0.75328517, 0.33339754, 0.42270178, -7.2529135, -1.5683234, -5.490929
953, 484235727, 0.36455712, -0.7558577, 0.33056688, 0.4318643, -5.8000336, 1.125059, -3.9672132
954, 484252394, 0.34157073, -0.76439786, 0.32349116, 0.44088832, -2.4650915, 2.1116185, -2.069366
955, 484269061, 0.31942928, -0.7737522, 0.31614357, 0.44646308, 1.0682101, 1.1292988, -1.0621061
956, 484285728, 0.30787966, -0.7775633, 0.31262696, 0.45041496, 4.3768406, 1.762239, 1.3589869
957, 484302395, 0.30923623, -0.77474385, 0.3141911, 0.4532465, 6.854499, 3.8409173, 3.4132433
958, 484319062, 0.3118071, -0.77229077, 0.31788275, 0.45309767, 8.856498, 2.472182, 4.2492247
959, 484335729, 0.3136242, -0.7704577, 0.31988937, 0.45355177, 10.153882, 2.3008683, 4.930072
960, 484352396, 0.31831753, -0.7687524, 0.32364324, 0.45050237, 9.954446, 1.4352759, 5.5264187
961, 484369063, 0.3236801, -0.7681254, 0.3279592, 0.4445908, 6.1882124, 0.5232407, 4.0942326
962, 484385730, 0.32987434, -0.7681471, 0.33271703, 0.43638968, 2.3412917, 0.26546946, 2.3678875
963, 484402397, 0.3374155, -0.7672189, 0.33718392, 0.4287619, -1.22781, 0.856157, 1.4444036
964, 484419064, 0.3473692, -0.7619595, 0.33993766, 0.42801675, -8.123421, 3.0575628, 5.123313
965, 484435731, 0.35278687, -0.7573567, 0.34644747, 0.42653233, -13.041491, -1.3021401, 5.7976274
966, 484452398, 0.35958388, -0.7536034, 0.35049126, 0.42419416, -2.0935862, 2.9865904, -2.1521058
967, 484469065, 0.36686665, -0.7485725, 0.35609847, 0.42219105, -0.8867418, 4.329681, -3.6748343
968, 484485732, 0.37033245, -0.7420722, 0.3619696, 0.42563397, -6.9120073, -1.5330884, -2.1142344
969, 484502399, 0.3695552, -0.73478144, 0.3693147, 0.43259162, -11.450514, -4.3921137, -1.29144
970, 484519066, 0.3663486, -0.7289205, 0.3755813, 0.43977952, -11.871922, -3.7449343, -0.72049904
971, 484535733, 0.35977224, -0.7245996, 0.38163507, 0.44707665, -4.853511, 0.7713872, -1.149312
972, 484552400, 0.35608065, -0.7172246, 0.38727555, 0.45696458, -1.1302699, 1.6565509, 3.1522894
973, 484569067, 0.3486208, -0.71166104, 0.3909559, 0.46814445, 1.0435561, -1.2395061, 1.0027504
974, 484585734, 0.33985206, -0.7060743, 0.3956188, 0.47900844, -0.5173719, -3.059841, -0.7997179
975, 484602401, 0.33095035, -0.7006008, 0.40010822, 0.48943585, -2.101972, -2.233164, -1.060936
976, 484619068, 0.32092917, -0.6956385, 0.40432343, 0.49961728, -1.9345053, 0.3305967, 0.006948471
977, 484635735, 0.31033477, -0.68974066, 0.40837738, 0.5110592, -1.8877984, 0.6164533, -0.74617577
978, 484652402, 0.29810292, -0.683751, 0.41117045, 0.5239862, -1.3107476, -0.3933741, -0.59397316
979, 484669069, 0.28729588, -0.6768342, 0.4131896, 0.53724736, 0.6588384, 0.7888416, 0.04390335
980, 484685736, 0.2793609, -0.6690686, 0.4156069, 0.54916215, 2.3580225, 0.94520545, -0.8473816
981, 484702403, 0.2720598, -0.6617078, 0.41871467, 0.55929214, 2.0888264, -0.5947492, -1.1534939
982, 484719070, 0.26429883, -0.65484416, 0.42178485, 0.5687059, 0.80248314, -0.74624884, -0.7542467
983, 484735737, 0.25598502, -0.64849883, 0.42373294, 0.5782517, 0.77658516, -0.56709236, -0.65826225
984, 484752404, 0.24791804, -0.64241445, 0.4252341, 0.5873839, 1.7208947, -0.20296831, -0.6869526
985, 484769071, 0.23997656, -0.63668793, 0.42606637, 0.5962474, 1.5807489, 0.19545269, -1.1213207
986, 484785738, 0.23246638, -0.63079274, 0.42681515, 0.6048904, 0.59453607, -0.16990605, -0.21259499
987, 484802405, 0.22467226, -0.6252712, 0.42659166, 0.6136624, 0.38273934, -0.7696095, 0.9126444
988, 484819072, 0.21717133, -0.6203902, 0.42468342, 0.62257564, 2.2802494, -0.26776293, 0.8590555
989, 484835739, 0.21010865, -0.61608404, 0.421526, 0.631359, 3.4234169, -0.019933108, 0.3143959
990, 484852406, 0.2036112, -0.6119889, 0.41779667, 0.63989186, 3.8952138, -0.040843863, 0.084926605
991, 484869073, 0.19894193, -0.6080752, 0.41433793, 0.6472977, 4.5080905, -0.32016197, -0.44425583
992, 484885740, 0.1961232, -0.6045614, 0.41119167, 0.65342647, 5.58523, -0.5234023, -1.1356096
993, 484902407, 0.1940266, -0.60189295, 0.40767568, 0.6586979, 5.2446127, -0.9872277, -0.75994873
994, 484919074, 0.1925238, -0.6003274, 0.4033609, 0.66320837, 5.280293, -1.5460693, -0.64350796
995, 484935741, 0.19155127, -0.59977597, 0.39786202, 0.6672977, 6.3235197, -1.9274712, -0.6482849
996, 484952408, 0.19164574, -0.59963083, 0.39178488, 0.67098653, 8.449334, -2.353112, -1.5279293
997, 484969075, 0.19343093, -0.6018533, 0.38523066, 0.67227805, 11.693569, -2.0153127, -2.8151422
998, 484985742, 0.19484761, -0.60970783, 0.37507582, 0.67053163, 14.042381, 0.6085265, -2.849132
999, 485002409, 0.19486417, -0.6240941, 0.3579671, 0.6666315, 11.541303, 3.490629, -2.2033653
1000, 485019076, 0.1981087, -0.64101326, 0.33711123, 0.66046536, 7.2933674, 5.260865, -0.96236134
1001, 485035743, 0.20736872, -0.654956, 0.32211587, 0.6513646, 4.051494, 1.6161541, 1.3207293
1002, 485052410, 0.2241927, -0.6624521, 0.31814128, 0.6400662, -1.0537661, -3.4220607, 7.9008827
1003, 485069077, 0.24381843, -0.6731276, 0.31577206, 0.62269044, -4.256332, -5.184449, 5.887414
1004, 485085744, 0.25724658, -0.6899117, 0.30918163, 0.60187733, 1.172091, -2.8589566, 2.918909
1005, 485102411, 0.26383764, -0.7062934, 0.30098164, 0.58391184, 1.3317692, -1.984768, 3.47159
1006, 485119078, 0.26972544, -0.72160554, 0.29536057, 0.5650659, -1.6021501, -0.99070036, 3.7388496
1007, 485135745, 0.27965906, -0.73424566, 0.29310796, 0.54476166, -3.7895834, 0.93698096, 2.0257664
1008, 485152412, 0.2926222, -0.74390626, 0.29344866, 0.52427787, -5.2766714, 1.8788534, 0.26813793
1009, 485169079, 0.3085984, -0.7501572, 0.29914567, 0.50254047, -4.6291423, 1.8476769, 0.6565666
1010, 485185746, 0.328328, -0.75228083, 0.30987972, 0.4798463, -4.49616, 0.8171199, -0.011496544
1011, 485202413, 0.34591097, -0.75280714, 0.32101542, 0.45889008, -5.3609715, -0.1965241, -2.2638159
1012, 485219080, 0.35693675, -0.75308275, 0.3279133, 0.4449036, -7.3562574, -0.7486648, -4.320577
1013, 485235747, 0.36300555, -0.75253344, 0.33059937, 0.43889454, -7.934193, -1.4268004, -5.120931
1014, 485252414, 0.36665532, -0.7511123, 0.33200192, 0.43723294, -8.053685, -2.7839859, -5.597218
1015, 485269081, 0.36735848, -0.74943185, 0.33337456, 0.43848026, -8.24386, -2.585149, -5.7211585
1016, 485285748, 0.36162853, -0.75038093, 0.3321475, 0.4425327, -6.525645, -0.18893857, -5.1474934
1017, 485302415, 0.35051376, -0.7550259, 0.325252, 0.44865477, -3.4345303, 3.9569268, -4.1053667
1018, 485319082, 0.33539847, -0.76456887, 0.31619376, 0.4505195, 0.70625824, 2.7819693, -2.9678068
1019, 485335749, 0.32062185, -0.774952, 0.3079709, 0.4492314, 3.425241, 1.9767705, 0.2503929
1020, 485352416, 0.31127626, -0.7814278, 0.30037856, 0.44972697, 4.005155, 2.3361056, 1.5533724
1021, 485369083, 0.30860376, -0.783512, 0.29636657, 0.45060328, 3.021798, 1.4792705, 1.66928
1022, 485385750, 0.312073, -0.7827245, 0.29664344, 0.4493988, 5.8678837, 0.32853276, 3.6433487
1023, 485402417, 0.3173826, -0.78122795, 0.29788265, 0.44746032, 7.1868815, 1.6101431, 4.827695
1024, 485419084, 0.32352573, -0.7793692, 0.30102617, 0.44418657, 5.8414764, 1.3291457, 3.8849154
1025, 485435751, 0.3287888, -0.77825737, 0.30581474, 0.4389701, 3.2217383, -0.07931357, 3.3831139
1026, 485452418, 0.33539784, -0.7766398, 0.31177738, 0.43259418, 0.47789428, -0.19102915, 2.5603657
1027, 485469085, 0.3447514, -0.7724054, 0.31873602, 0.42772382, -3.123844, 0.35674635, 0.41736126
1028, 485485752, 0.3545079, -0.7646608, 0.32639256, 0.42788994, -7.856341, 1.5677449, -2.2231865
1029, 485502419, 0.36356598, -0.75492907, 0.33618626, 0.4299821, -12.597963, 1.4775333, 6.569971
1030, 485519086, 0.36463732, -0.7491037, 0.3435436, 0.43343392, -4.1159062, 1.5597521, -0.120910645
1031, 485535753, 0.36387953, -0.74818456, 0.34497696, 0.4345185, 5.4699736, 5.1209183, 1.360198
1032, 485552420, 0.3671357, -0.74312574, 0.3504967, 0.4360408, 1.5013269, 1.6574223, 1.1922321
1033, 485569087, 0.37046364, -0.7367257, 0.35748494, 0.43840647, -6.7652273, -2.9813757, -1.7590017
1034, 485585754, 0.3696963, -0.73052937, 0.36243325, 0.44530597, -14.724518, -7.737526, -3.0205116
1035, 485602421, 0.36402223, -0.7272452, 0.36733747, 0.45129755, -9.919604, -1.9867123, -4.580443
1036, 485619088, 0.3542685, -0.72390264, 0.37194487, 0.46056423, -2.9596567, -0.5326013, -0.07604885
1037, 485635755, 0.3431552, -0.72043455, 0.37596548, 0.4710335, -0.7796465, -0.3394851, 4.8710003
1038, 485652422, 0.33671433, -0.7132333, 0.38259962, 0.48118934, 0.24760184, 0.8963075, 1.419241
1039, 485669089, 0.33346233, -0.70336545, 0.39124107, 0.49093172, -2.3818412, 1.3015454, -0.4713621
1040, 485685756, 0.32761222, -0.6951143, 0.398788, 0.5004579, -2.1776195, -0.6384531, 0.2841406
1041, 485702423, 0.31924322, -0.6876067, 0.40497947, 0.5111518, -2.5279226, -1.3911366, -0.5896778
1042, 485719090, 0.30894953, -0.6800304, 0.41175258, 0.5220848, -3.7573047, -1.7073729, -0.7237959
1043, 485735757, 0.29420817, -0.6733617, 0.41657314, 0.5352533, -3.9731739, -2.025132, -0.41776657
1044, 485752424, 0.2770722, -0.6673953, 0.41735843, 0.5510264, -1.507362, -0.23738897, 0.70670223
1045, 485769091, 0.26484546, -0.6592535, 0.4173535, 0.56662273, 1.5444568, 1.2424183, 0.29391766
1046, 485785758, 0.25592014, -0.65085655, 0.41887707, 0.57916874, 3.5800905, 0.1560031, -1.5012884
1047, 485802425, 0.2479941, -0.64333344, 0.42130703, 0.5891733, 4.1784134, -0.35908318, -1.612525
1048, 485819092, 0.23987553, -0.63660985, 0.42289373, 0.59862536, 4.267719, -0.6693641, -1.873992
1049, 485835759, 0.23306412, -0.6304774, 0.42409047, 0.6069022, 3.7459435, -0.5059227, -2.0060668
1050, 485852426, 0.22715144, -0.6253451, 0.42486396, 0.6138729, 2.8809626, -0.9194505, -1.4164934
1051, 485869093, 0.22142762, -0.6213387, 0.42464456, 0.6201522, 2.8293562, -0.90648484, -0.68964577
1052, 485885760, 0.21589386, -0.6178355, 0.42346025, 0.6263818, 2.36294, -0.67508197, 0.057613373
1053, 485902427, 0.21058376, -0.6145705, 0.42120022, 0.6328915, 2.5188327, -0.18363377, 0.8535042
1054, 485919094, 0.20538878, -0.61154735, 0.4180266, 0.6395958, 2.1664798, 0.055979937, 1.2412729
1055, 485935761, 0.20059368, -0.60833365, 0.4139519, 0.646792, 2.4790385, 0.25802335, 1.1649904
1056, 485952428, 0.19700345, -0.6045623, 0.4103293, 0.65370303, 3.9016461, 0.45255986, 0.22473907
1057, 485969095, 0.19556989, -0.6004765, 0.40830016, 0.65914726, 5.2895174, -0.15489559, -0.2764206
1058, 485985762, 0.1954178, -0.5967963, 0.406331, 0.6637357, 4.910886, -1.4486845, -0.26088905
1059, 486002429, 0.19534944, -0.5941534, 0.402868, 0.66822255, 5.961203, -2.008871, -0.107608795
1060, 486019096, 0.19555223, -0.59306437, 0.39735973, 0.67241573, 8.312337, -2.6494677, -1.5846024
1061, 486035763, 0.1964551, -0.59373015, 0.39045554, 0.67560214, 10.370333, -2.9747548, -3.4254155
1062, 486052430, 0.1997098, -0.59877694, 0.3818824, 0.67509407, 14.1476555, -1.8155942, -4.8184
1063, 486069097, 0.2007722, -0.6122895, 0.36610493, 0.67138886, 14.523003, 2.5692422, -3.8633556
1064, 486085764, 0.20202589, -0.6306996, 0.34245184, 0.66643393, 9.51085, 6.424272, -2.272101
1065, 486102431, 0.21297589, -0.6454566, 0.3246315, 0.65775776, 6.4363194, 2.106732, 0.6376238
1066, 486119098, 0.23229186, -0.6533851, 0.31836087, 0.6463579, 1.5984871, -3.3833961, 6.561634
1067, 486135765, 0.25501275, -0.6620933, 0.3208649, 0.6274156, -2.6042354, -6.4090724, 6.351427
1068, 486152432, 0.2706644, -0.6797052, 0.31959984, 0.6021639, -0.066554, -3.5697126, 4.958684
1069, 486169099, 0.27860314, -0.69833064, 0.3138414, 0.5798464, 0.1856297, -3.1183548, 4.596381
1070, 486185766, 0.28473812, -0.71438074, 0.30846325, 0.559856, -2.5401394, -2.1973474, 4.759037
1071, 486202433, 0.29250413, -0.7285972, 0.30555758, 0.53872585, -4.4944515, -0.17871526, 3.2732925
1072, 486219100, 0.2999405, -0.74187, 0.30294895, 0.5175812, -5.8374996, 2.228195, 1.1392231
1073, 486235767, 0.30728322, -0.75262994, 0.3024227, 0.49766397, -5.928571, 3.0778868, 0.1377306
1074, 486252434, 0.31923485, -0.7582537, 0.30766463, 0.478003, -4.7894964, 2.2033272, -0.15905285
1075, 486269101, 0.337737, -0.75876755, 0.31843558, 0.4569554, -4.7160053, 1.1321651, -1.1920586
1076, 486285768, 0.3574559, -0.7565099, 0.33134535, 0.43604144, -5.9036117, 0.20944184, -3.1255813
1077, 486302435, 0.37235218, -0.75370795, 0.34143236, 0.42036402, -7.701135, -0.1732531, -4.8914165
1078, 486319102, 0.38144708, -0.7507885, 0.3460457, 0.4136071, -8.383117, -1.1632913, -5.7947993
1079, 486335769, 0.3860159, -0.7483529, 0.34742486, 0.41262493, -8.480183, -2.6090717, -6.126836
1080, 486352436, 0.38532352, -0.74640787, 0.3471262, 0.41702312, -9.0812645, -2.9454548, -6.076721
1081, 486369103, 0.37641308, -0.747659, 0.34383556, 0.42555854, -7.905675, -1.1244917, -6.020896
1082, 486385770, 0.35650694, -0.7555199, 0.33532184, 0.43549454, -3.7291863, 3.3346817, -3.8695526
1083, 486402437, 0.33707997, -0.7653687, 0.32597262, 0.4408327, 2.3590987, 5.0915155, -1.0106306
1084, 486419104, 0.32775384, -0.7718951, 0.32001394, 0.44085172, 4.9827304, 3.404598, 0.3504076
1085, 486435771, 0.3235697, -0.77543545, 0.31754884, 0.43951, 5.2947044, 0.20259573, 1.1462421
1086, 486452438, 0.32126626, -0.7771216, 0.31699684, 0.43861914, 4.3015585, -0.75313586, 3.0267868
1087, 486469105, 0.32264608, -0.77773625, 0.31637543, 0.43696222, 6.5926747, -0.22775792, 4.8092346
1088, 486485772, 0.3247747, -0.7786297, 0.31569606, 0.43427703, 7.2708087, 1.6862608, 5.3869705
1089, 486502439, 0.32627848, -0.77962416, 0.3154735, 0.43151915, 5.970756, 2.0258303, 3.948019
1090, 486519106, 0.3280553, -0.7802213, 0.31763145, 0.42749113, 2.8992047, 0.4663835, 2.457512
1091, 486535773, 0.33209476, -0.7793042, 0.3229352, 0.42203623, -0.71161765, -0.64710754, 1.481349
1092, 486552440, 0.33990827, -0.7749102, 0.3301241, 0.41832814, -4.064108, 0.43437028, 0.055482864
1093, 486569107, 0.3510297, -0.7665918, 0.33756545, 0.41853154, -9.252375, 3.6702726, 6.6535225
1094, 486585774, 0.36272347, -0.75779456, 0.3478191, 0.4161787, -5.749263, 0.87860864, 4.134099
1095, 486602441, 0.36522168, -0.75509965, 0.35388288, 0.41377324, 2.0794911, 5.85163, -2.8318071
1096, 486619108, 0.36551964, -0.75230134, 0.35770023, 0.41532218, -1.2008424, 2.4205563, -2.8817434
1097, 486635775, 0.37532434, -0.741435, 0.36562318, 0.4192007, -8.11469, -2.947601, -2.8240333
1098, 486652442, 0.38154227, -0.73092735, 0.37361562, 0.42495412, -15.239684, -6.059748, -0.50955296
1099, 486669109, 0.37270522, -0.7294883, 0.37661558, 0.432553, -10.547859, -1.4721535, -2.5605135
1100, 486685776, 0.3574047, -0.7301092, 0.3769887, 0.44394326, -3.785967, -1.4403601, 2.3652039
1101, 486702443, 0.347783, -0.7261778, 0.3807745, 0.45467275, -1.4468336, 0.6582025, 3.3714676
1102, 486719110, 0.3393084, -0.7203262, 0.38596112, 0.46587327, 0.5767881, 1.1658179, 0.60871696
1103, 486735777, 0.333925, -0.71207744, 0.39155614, 0.47762674, -0.8265214, 0.2521917, -0.021996498
1104, 486752444, 0.33045208, -0.7029667, 0.397946, 0.48814133, -2.6575181, -0.48878404, 0.29192448
1105, 486769111, 0.3231405, -0.69587386, 0.40189973, 0.49982, -2.1870522, -1.4791197, -0.27480507
1106, 486785778, 0.31284717, -0.6900468, 0.405376, 0.5115037, -1.3852335, -1.4665692, -0.75438213
1107, 486802445, 0.3005247, -0.6842905, 0.40870637, 0.5238264, -1.5301828, -1.622306, -1.057807
1108, 486819112, 0.2853848, -0.67956704, 0.4108664, 0.53659725, -1.2757404, -1.5236144, -0.5070381
1109, 486835779, 0.2684744, -0.6759477, 0.40978843, 0.5505392, 0.3586728, -0.24200553, 0.36558914
1110, 486852446, 0.25514343, -0.6704053, 0.40863055, 0.5643433, 1.5735906, 0.4047625, 0.022706032
1111, 486869113, 0.2457667, -0.66261923, 0.4099385, 0.5766182, 1.5680418, 0.6340561, -0.64397335
1112, 486885780, 0.23796543, -0.6543731, 0.41301328, 0.5870197, 2.3770251, 0.28074032, -1.7537632
1113, 486902447, 0.22955862, -0.6471551, 0.41690922, 0.59555316, 3.0411499, -0.8857375, -2.1721683
1114, 486919114, 0.22118339, -0.64083445, 0.41953656, 0.6036571, 2.248945, -0.30152926, -1.7734528
1115, 486935781, 0.21463716, -0.63451725, 0.4205818, 0.61190987, 1.1588421, 0.0013353782, -1.4426079
1116, 486952448, 0.20720589, -0.62896353, 0.42004898, 0.62051034, 0.66762584, -0.8065796, 0.5935421
1117, 486969115, 0.19927761, -0.62386453, 0.4174646, 0.6299274, 2.424434, -0.619668, 1.0016365
1118, 486985782, 0.19210176, -0.6191399, 0.41378847, 0.6391758, 3.458791, 0.03657119, 0.64371014
1119, 487002449, 0.18604653, -0.6143975, 0.40957475, 0.6481934, 3.3013222, 0.3012883, 0.3988304
1120, 487019116, 0.18154642, -0.6095915, 0.40571445, 0.6563831, 4.2781725, -0.27174884, -0.080524445
1121, 487035783, 0.17916611, -0.604932, 0.40287167, 0.66306484, 5.254695, -0.554081, -0.40716267
1122, 487052450, 0.17776892, -0.6008127, 0.4002155, 0.6687703, 5.1616406, -1.1978283, -0.16805649
1123, 487069117, 0.17641287, -0.597661, 0.39665627, 0.6740531, 5.3189173, -1.5685254, 0.2560568
1124, 487085784, 0.1753758, -0.5955735, 0.3916969, 0.6790528, 6.9068217, -1.8669168, 0.115465164
1125, 487102451, 0.17498101, -0.5942785, 0.3857326, 0.68368775, 8.711208, -2.4737434, -1.1626949
1126, 487119118, 0.17637044, -0.5961111, 0.3783055, 0.68588173, 12.414517, -1.4939957, -2.956451
1127, 487135785, 0.18056843, -0.6021278, 0.36811, 0.6850812, 14.978005, 1.6269253, -3.4630485
1128, 487152452, 0.18483207, -0.61380523, 0.35372663, 0.6811471, 13.252615, 4.1411815, -3.074473
1129, 487169119, 0.18919215, -0.62960804, 0.33427235, 0.67532647, 7.6297193, 4.9577427, -2.3482404
1130, 487185786, 0.20240664, -0.6418202, 0.32230118, 0.66575074, 6.4673114, 0.9536303, -0.14232731
1131, 487202453, 0.22389449, -0.6490817, 0.3197501, 0.652938, 2.5774455, -2.5756338, 4.6740417
1132, 487219120, 0.24636748, -0.65851456, 0.3216278, 0.63420904, -1.0918396, -4.575613, 5.2869864
1133, 487235787, 0.26160645, -0.6757018, 0.31728578, 0.611819, -0.54237133, -4.2878003, 4.357275
1134, 487252454, 0.26988134, -0.69502074, 0.30767038, 0.59114546, 0.047013827, -3.7433167, 3.5488625
1135, 487269121, 0.27521718, -0.7123688, 0.2975288, 0.5729457, -2.6835227, -2.0509794, 4.878372
1136, 487285788, 0.28399935, -0.726828, 0.29294786, 0.5524951, -4.144057, -1.0852871, 3.1358128
1137, 487302455, 0.29657373, -0.738836, 0.29161772, 0.5302155, -4.812039, 1.5505898, 1.1908007
1138, 487319122, 0.31011134, -0.7484486, 0.29250467, 0.50803596, -4.9872475, 2.2800658, 0.1740303
1139, 487335789, 0.32462817, -0.7548761, 0.29774833, 0.48593056, -4.367938, 1.0301555, 0.4013605
1140, 487352456, 0.34044206, -0.75888145, 0.3075676, 0.4621731, -4.6142635, -0.42950463, 0.09236145
1141, 487369123, 0.35477227, -0.7613787, 0.31837243, 0.43941048, -6.168959, -0.95623815, -1.9596872
1142, 487385790, 0.36347178, -0.7634949, 0.32573107, 0.4229266, -8.255236, -0.48651317, -4.196392
1143, 487402457, 0.3676718, -0.76435703, 0.32948107, 0.41475493, -9.756397, -0.67396754, -5.2637367
1144, 487419124, 0.3703896, -0.76365566, 0.33198947, 0.41161653, -9.497511, -1.7206473, -5.638147
1145, 487435791, 0.3725059, -0.7607823, 0.33419594, 0.4132388, -9.480272, -1.2972986, -5.765317
1146, 487452458, 0.37191987, -0.757632, 0.33429945, 0.4194242, -7.965656, 1.0321505, -6.222574
1147, 487469125, 0.3619484, -0.75999576, 0.32913226, 0.42787325, -4.424801, 4.1740785, -5.041675
1148, 487485792, 0.3476565, -0.7668868, 0.32283986, 0.43220118, 1.1053838, 3.4028678, -2.471675
1149, 487502459, 0.33697945, -0.7736566, 0.31963962, 0.43096933, 2.9007711, 0.09502765, -0.31394863
1150, 487519126, 0.32528564, -0.7800362, 0.31590876, 0.4312052, 4.542467, -0.10701666, 1.6442299
1151, 487535793, 0.31653127, -0.78388816, 0.31156608, 0.43388653, 4.934225, 1.4824256, 4.537243
1152, 487552460, 0.3201312, -0.7831044, 0.31194317, 0.43238717, 7.046099, 0.46287477, 4.953353
1153, 487569127, 0.32670927, -0.78113616, 0.314797, 0.4289451, 7.663696, 0.5425142, 5.085165
1154, 487585794, 0.33256146, -0.779092, 0.31827652, 0.42558458, 6.1537147, 1.4832226, 3.5346231
1155, 487602461, 0.3390621, -0.7766134, 0.32378462, 0.42080337, 2.3299532, 0.62459624, 2.0223732
1156, 487619128, 0.34815758, -0.7717723, 0.33114165, 0.4165362, -2.0809538, -0.0307641, 0.20207691
1157, 487635795, 0.3575075, -0.7644256, 0.33891535, 0.415911, -7.298498, 1.5010204, -0.6697531
1158, 487652462, 0.36703393, -0.7553975, 0.34844115, 0.4162368, -12.864587, 1.7853147, 9.947447
1159, 487669129, 0.37338006, -0.7475755, 0.35760677, 0.4169404, -1.5121329, 0.72969157, -0.4480362
1160, 487685796, 0.37417415, -0.7468392, 0.36039641, 0.41514212, 6.7561827, 3.6211803, 0.36882114
1161, 487702463, 0.3807273, -0.7397736, 0.36761016, 0.41550958, -0.31253436, 0.5809152, -2.4650865
1162, 487719130, 0.38618144, -0.7308282, 0.37731916, 0.41759783, -10.485994, -1.6395618, -3.4328232
1163, 487735797, 0.38389575, -0.7251013, 0.3821405, 0.42523485, -17.024763, -3.585342, -0.017406464
1164, 487752464, 0.37467983, -0.7231676, 0.38592383, 0.43325505, -9.576504, -1.0424923, -3.5721574
1165, 487769131, 0.36562604, -0.719276, 0.39118612, 0.44264758, -2.6079452, 0.72456664, 2.1128807
1166, 487785798, 0.3600803, -0.7134776, 0.3960031, 0.45219135, 0.9819818, 1.0198712, 3.8884802
1167, 487802465, 0.35615247, -0.70549786, 0.40215227, 0.46228278, 1.3559315, -0.3845775, -0.023713112
1168, 487819132, 0.35334817, -0.6962441, 0.40932178, 0.47206837, -2.404349, -1.7176126, -0.7705898
1169, 487835799, 0.3458886, -0.69005495, 0.41404694, 0.48244596, -3.9371173, -1.8699102, 0.30282688
1170, 487852466, 0.33551395, -0.685267, 0.4170859, 0.4938448, -3.0499518, -0.15470047, -0.19762516
1171, 487869133, 0.32213095, -0.68127334, 0.41829264, 0.5070828, -2.3882253, -0.39492348, -0.10337639
1172, 487885800, 0.30662048, -0.67729384, 0.4185575, 0.5216034, -1.9281691, -1.1845449, -0.1972208
1173, 487902467, 0.28896868, -0.6738017, 0.41793156, 0.53649354, -1.3936757, -0.9839523, -0.080607414
1174, 487919134, 0.27230218, -0.66977453, 0.41525662, 0.5521044, 1.182233, 0.07011758, 0.07607651
1175, 487935801, 0.26180166, -0.6629404, 0.41455165, 0.56579185, 2.2094653, 0.06892022, -0.670063
1176, 487952468, 0.2532322, -0.65574294, 0.4156806, 0.57713777, 2.2272284, -0.06292314, -1.1701336
1177, 487969135, 0.24454302, -0.6488705, 0.41736034, 0.5873497, 2.96573, -0.35596183, -1.6311941
1178, 487985802, 0.23549509, -0.64221936, 0.41906434, 0.5970637, 2.2536762, -0.70069176, -1.4418154
1179, 488002469, 0.22753194, -0.6359619, 0.41964024, 0.6063721, 2.1566281, -0.6303309, -1.1760597
1180, 488019136, 0.22057725, -0.6302468, 0.41884536, 0.61539155, 1.9992398, -1.0554333, -0.91009617
1181, 488035803, 0.21401565, -0.62527007, 0.41691473, 0.6240356, 3.184124, -1.2815585, 0.17708015
1182, 488052470, 0.20707756, -0.62138206, 0.41338065, 0.6325531, 4.1453795, -0.7001244, -0.1094017
1183, 488069137, 0.20038247, -0.6180762, 0.40891972, 0.6407939, 3.5761213, 0.24035041, 0.39058018
1184, 488085804, 0.19598842, -0.614191, 0.40509656, 0.6482733, 3.8013036, 0.53221136, 0.025297165
1185, 488102471, 0.19404298, -0.6098468, 0.40287644, 0.6543151, 4.57222, 0.05173051, -0.019060135
1186, 488119138, 0.19339526, -0.605701, 0.40129763, 0.6593089, 4.2321486, -0.54193556, 0.5679598
1187, 488135805, 0.19235209, -0.6022071, 0.3984473, 0.6645229, 3.7377312, -1.3002404, 0.9992323
1188, 488152472, 0.19136328, -0.5996409, 0.39422816, 0.6696257, 4.8137484, -1.8028716, 0.58047676
1189, 488169139, 0.19059354, -0.59813964, 0.38857388, 0.6744754, 6.9004006, -2.073554, -0.82413006
1190, 488185806, 0.19110096, -0.5972874, 0.38232696, 0.6786442, 9.013784, -2.8826427, -1.9380574
1191, 488202473, 0.19333762, -0.5992241, 0.3749205, 0.680433, 12.742438, -2.315449, -3.585248
1192, 488219140, 0.19592232, -0.60759026, 0.36358228, 0.6784248, 15.310816, 0.77879244, -4.313877
1193, 488235807, 0.19678012, -0.623002, 0.34457743, 0.6741039, 11.990748, 5.40925, -2.809873
1194, 488252474, 0.20147565, -0.6398702, 0.32370296, 0.66722834, 7.1978993, 4.6548786, -1.9701967
1195, 488269141, 0.21373068, -0.6523459, 0.31172788, 0.6569578, 3.3722456, -0.5879477, 0.90371037
1196, 488285808, 0.23431131, -0.65940076, 0.3105144, 0.6433298, -0.28223506, -4.8121963, 6.943201
1197, 488302475, 0.2559122, -0.6709487, 0.31018975, 0.622995, -1.9322438, -4.280974, 6.2136745
1198, 488319142, 0.27044868, -0.68757766, 0.3038488, 0.6014764, -0.114628285, -3.3260891, 4.153452
1199, 488335809, 0.2788297, -0.7043659, 0.2951457, 0.58225024, -0.4618292, -2.977239, 4.0151176
1200, 488352476, 0.2850049, -0.72125506, 0.2876181, 0.561999, -2.631611, -2.0692549, 3.8895435
1201, 488369143, 0.2922234, -0.73685527, 0.28338626, 0.53976446, -4.243087, -0.11929836, 2.2406445
1202, 488385810, 0.29947102, -0.75042135, 0.28060052, 0.51812345, -5.7826624, 1.9170318, 0.7125225
1203, 488402477, 0.30797136, -0.76018536, 0.28078312, 0.49843398, -5.606701, 2.3269153, 0.13102436
1204, 488419144, 0.31970504, -0.76577353, 0.28541127, 0.47950363, -4.919029, 1.8785527, -0.583436
1205, 488435811, 0.33509576, -0.7683336, 0.29510152, 0.4585773, -4.6669297, 1.3111156, -1.5307341
1206, 488452478, 0.352481, -0.7676138, 0.30820754, 0.4376508, -5.968909, 0.5097136, -3.035191
1207, 488469145, 0.36736974, -0.76432216, 0.32053107, 0.42203668, -7.958694, -0.46723965, -4.324984
1208, 488485812, 0.37853223, -0.7593006, 0.3304503, 0.4134997, -9.251971, -2.2432094, -5.741644
1209, 488502479, 0.3849299, -0.75402296, 0.33948022, 0.4099209, -9.822705, -3.2421749, -7.474658
1210, 488519146, 0.38427484, -0.7507654, 0.34585, 0.4111883, -9.405234, -2.8418489, -7.2305803
1211, 488535813, 0.37720993, -0.751218, 0.34616414, 0.41660342, -7.262256, 0.23113368, -5.108845
1212, 488552480, 0.3612472, -0.7577673, 0.33737808, 0.42599165, -2.8102832, 4.7440124, -2.8030229
1213, 488569147, 0.34513703, -0.76696146, 0.326167, 0.43158937, 3.397667, 1.836515, 0.40774918
1214, 488585814, 0.33710402, -0.7730579, 0.32395282, 0.42871976, 6.6560082, -1.331726, 1.7016983
1215, 488602481, 0.3276575, -0.7781568, 0.32239473, 0.42799267, 5.807388, 2.4902973, 3.398737
