sep=,
DeviceTag:,DEMO6_2,,,,,,,,,,,,,,,,,
FirmwareVersion:,1.9.1,,,,,,,,,,,,,,,,,
AppVersion:,2023.6.1,,,,,,,,,,,,,,,,,
SyncStatus:,Synced,,,,,,,,,,,,,,,,,
OutputRate:,60Hz,,,,,,,,,,,,,,,,,
FilterProfile:,General,,,,,,,,,,,,,,,,,
Measurement Mode:,Sensor fusion Mode - Complete (Quaternion),,,,,,,,,,,,,,,,,
StartTime:,2025-02-09 22:14:52.174 -0600,,,,,,,,,,,,,,,,,
 2025,,,,,,,,,,,,,,,,,,,

PacketCounter,SampleTimeFine,Quat_W,Quat_X,Quat_Y,Quat_Z,FreeAcc_X,FreeAcc_Y,FreeAcc_Z
1, 468368743, 0.37157845, 0.5834737, 0.47620624, -0.54287887, -0.05084875, -0.15883613, -0.07056141
2, 468385410, 0.37150553, 0.58360344, 0.47596037, -0.54300493, -0.06365403, -0.076213, -0.087073326
3, 468402077, 0.37140688, 0.583774, 0.4757101, -0.5431082, -0.06924934, 0.016284483, -0.07327938
4, 468418744, 0.3713041, 0.5839703, 0.47548562, -0.54316413, -0.05214837, -0.05903022, -0.027989388
5, 468435411, 0.37123942, 0.584104, 0.4753437, -0.5431887, 0.0027853067, -0.16751984, 0.03556347
6, 468452078, 0.3712495, 0.58414894, 0.47532395, -0.54315066, 0.07496278, -0.20060265, 0.015758514
7, 468468745, 0.37129888, 0.5841421, 0.47536722, -0.54308635, 0.061513558, -0.18966326, 0.0042276382
8, 468485412, 0.3713864, 0.5841317, 0.47546142, -0.5429554, 0.035906464, -0.09677798, -0.072439194
9, 468502079, 0.37155986, 0.5841209, 0.47565892, -0.54267514, 0.05307047, -0.023387725, -0.085585594
10, 468518746, 0.37175846, 0.58412206, 0.4759445, -0.54228765, 0.04243997, -0.04306491, -0.048810005
11, 468535413, 0.371958, 0.58411574, 0.47626883, -0.54187244, 0.019133938, -0.10291542, -0.0015611649
12, 468552080, 0.37215573, 0.5840743, 0.47660828, -0.541483, -0.045624692, -0.1051662, 0.01625824
13, 468568747, 0.3724227, 0.58400244, 0.47693798, -0.5410864, 0.021655276, -0.053534035, -0.016906738
14, 468585414, 0.37267622, 0.5839168, 0.47727907, -0.5407035, -0.012822044, -0.06328568, -0.027568817
15, 468602081, 0.37288335, 0.58386195, 0.47758284, -0.5403514, -0.051771414, -0.061771605, -0.060364723
16, 468618748, 0.37300602, 0.58382636, 0.4778532, -0.54006606, -0.093770504, -0.068739176, 0.0151901245
17, 468635415, 0.37310943, 0.58381844, 0.47809365, -0.5397903, -0.13838693, -0.122127704, 0.019119263
18, 468652082, 0.37318528, 0.583831, 0.47825497, -0.5395815, -0.16047527, -0.12730783, 0.030540466
19, 468668749, 0.3732619, 0.5838308, 0.4784093, -0.5393917, -0.100342676, -0.21092828, 0.03529644
20, 468685416, 0.3734368, 0.5837255, 0.4786196, -0.53919816, -0.024516242, -0.17442705, 0.019676208
21, 468702083, 0.37355393, 0.58364594, 0.47880077, -0.5390422, -0.063954994, -0.114657454, -0.055574417
22, 468718750, 0.37368608, 0.5835384, 0.4790054, -0.5388852, -0.060274515, -0.10485328, -0.04399681
23, 468735417, 0.37381563, 0.58341837, 0.47920772, -0.5387455, -0.12532786, -0.09861705, -0.04178238
24, 468752084, 0.3738284, 0.583385, 0.47930104, -0.53868973, -0.10768429, -0.12260557, -0.025981903
25, 468768751, 0.3738628, 0.58336323, 0.47938162, -0.53861773, -0.037966248, -0.12127165, 0.004135132
26, 468785418, 0.37392238, 0.5833715, 0.47942483, -0.53852886, -0.13753222, -0.1427964, 0.0033273697
27, 468802085, 0.37394452, 0.58343476, 0.4793711, -0.5384928, -0.17228244, -0.12145739, 0.01546669
28, 468818752, 0.37386608, 0.58357, 0.47924185, -0.53851575, -0.135148, -0.09923752, -0.0014801025
29, 468835419, 0.37377062, 0.58369637, 0.4791329, -0.538542, -0.16914633, -0.19547974, -0.0030145645
30, 468852086, 0.37369728, 0.5837989, 0.47901633, -0.5385855, -0.19594543, -0.1774438, -0.010133743
31, 468868753, 0.37362385, 0.5838876, 0.4788827, -0.53865904, -0.15918683, -0.14115983, -0.005381584
32, 468885420, 0.37354097, 0.5839572, 0.47873884, -0.5387689, -0.14763355, -0.113932155, -0.039800644
33, 468902087, 0.37341037, 0.5840433, 0.47860855, -0.5388819, 0.014752526, -0.10608864, -0.045829773
34, 468918754, 0.37328887, 0.58414084, 0.47850016, -0.5389567, 0.055739436, -0.081905656, -0.03573227
35, 468935421, 0.37315074, 0.58429086, 0.47836304, -0.5390113, 0.074036434, -0.114905775, -0.046850204
36, 468952088, 0.37306824, 0.5844483, 0.47825533, -0.5389935, 0.09419406, -0.11575334, -0.05039692
37, 468968755, 0.37299788, 0.58464015, 0.4781422, -0.5389343, 0.0641984, -0.073181495, -0.07127094
38, 468985422, 0.3728855, 0.5848604, 0.47802478, -0.5388773, 0.040574756, -0.08492084, -0.044386864
39, 469002089, 0.37275454, 0.58503145, 0.4779782, -0.53882354, -0.06971011, -0.094843924, 0.004593849
40, 469018756, 0.37255847, 0.58514917, 0.47800353, -0.5388088, -0.13796672, -0.11021089, 0.03374386
41, 469035423, 0.37228134, 0.5851812, 0.47807217, -0.5389048, -0.1518404, -0.14080623, 0.017198563
42, 469052090, 0.37198502, 0.5851235, 0.47820163, -0.53905725, -0.074009836, -0.09727038, 0.0104494095
43, 469068757, 0.37168315, 0.58501244, 0.47836772, -0.5392386, 0.07140233, -0.06854382, -0.040875435
44, 469085424, 0.3714045, 0.5849174, 0.47853836, -0.5393823, 0.059015803, -0.04998465, -0.046182632
45, 469102091, 0.37107706, 0.58496374, 0.47858447, -0.53951645, 0.07594356, 0.0342176, -0.08850384
46, 469118758, 0.370746, 0.5851433, 0.4785405, -0.53958845, 0.016765594, -0.053950887, -0.02719593
47, 469135425, 0.37053752, 0.58538485, 0.4784057, -0.53958917, -0.045411687, -0.18866974, -0.054763794
48, 469152092, 0.37043458, 0.58566844, 0.4782482, -0.53949165, -0.10134714, -0.18717824, 0.0032129288
49, 469168759, 0.37047112, 0.5859716, 0.478044, -0.53931826, -0.1785541, -0.23283657, 0.07209873
50, 469185426, 0.3704769, 0.5862971, 0.47777718, -0.53919697, -0.35385588, -0.25478688, 0.05926895
51, 469202093, 0.37056288, 0.5864, 0.47767827, -0.53911346, -0.3242622, -0.15662022, 0.027200699
52, 469218760, 0.37061694, 0.5864099, 0.47759336, -0.53914094, -0.10474208, -0.16128382, 1.4400482E-4
53, 469235427, 0.37075078, 0.5863196, 0.47768033, -0.53906995, -0.04049507, -0.19162391, 0.0023899078
54, 469252094, 0.37078065, 0.5863246, 0.47761866, -0.53909874, 0.025012776, 0.02946549, 0.019360542
55, 469268761, 0.3708419, 0.58638203, 0.47744295, -0.5391499, 0.07622105, -0.03669412, 0.023114204
56, 469285428, 0.37091774, 0.5864626, 0.4770291, -0.53937626, -0.062810384, -0.08382652, 0.016496658
57, 469302095, 0.3709175, 0.5866209, 0.47649446, -0.53967655, -0.03378566, 0.05419139, -0.087221146
58, 469318762, 0.3706684, 0.58703184, 0.4758174, -0.5399982, -0.048820816, 0.05593881, -0.12155819
59, 469335429, 0.3704717, 0.58743244, 0.47514033, -0.5402936, -0.21808438, -0.18776451, -0.018864632
60, 469352096, 0.370368, 0.58773726, 0.4745255, -0.54057354, -0.23970088, -0.17779495, 0.025474548
61, 469368763, 0.3702544, 0.5879786, 0.4740161, -0.5408357, -0.289167, -0.30177802, 0.023722649
62, 469385430, 0.3702389, 0.5880362, 0.4737184, -0.5410448, -0.2829047, -0.27067062, 0.035945892
63, 469402097, 0.37020665, 0.5880357, 0.47347334, -0.5412818, -0.22313064, -0.11462102, 0.027508736
64, 469418764, 0.37018552, 0.5879705, 0.4733416, -0.54148215, -0.15223323, -0.14000426, 0.051437378
65, 469435431, 0.37009355, 0.58790207, 0.47322267, -0.5417232, -0.021743787, -0.13231006, 0.03183174
66, 469452098, 0.37001052, 0.5877607, 0.47321588, -0.54193926, 0.1364968, -0.09434817, 0.021060944
67, 469468765, 0.37003076, 0.587533, 0.4733308, -0.54207194, 0.30032688, -0.076720595, -0.057314873
68, 469485432, 0.37018177, 0.5872022, 0.47365096, -0.5420477, 0.37389773, -0.09841946, -0.098153114
69, 469502099, 0.37043735, 0.5868037, 0.47417423, -0.54184693, 0.3043328, -0.06173942, -0.10511303
70, 469518766, 0.37078798, 0.5864011, 0.47478878, -0.54150486, 0.16647469, -0.019998375, -0.10986042
71, 469535433, 0.3710753, 0.5860978, 0.4753432, -0.5411497, -0.013252083, 0.0016877464, 0.010629654
72, 469552100, 0.37135008, 0.58579355, 0.4758142, -0.5408767, -0.119016625, -0.15404133, 0.00825119
73, 469568767, 0.3717154, 0.5854031, 0.47637933, -0.540551, -0.16951993, -0.22531693, 0.011890411
74, 469585434, 0.37211356, 0.58492076, 0.47697982, -0.5402697, -0.2317675, -0.15522237, 0.005760193
75, 469602101, 0.37244302, 0.58447796, 0.47756767, -0.5400025, -0.28633752, -0.1071881, 0.015342712
76, 469618768, 0.37272376, 0.5840647, 0.47805303, -0.5398264, -0.33656168, -0.11754658, 0.020774841
77, 469635435, 0.37292323, 0.5837475, 0.4784019, -0.53972274, -0.28754985, -0.10529204, -0.01564598
78, 469652102, 0.3730536, 0.5835245, 0.47860953, -0.5396896, -0.21520486, -0.08196913, -0.02867508
79, 469668769, 0.37310782, 0.58343273, 0.47868764, -0.5396821, -0.114113644, -0.14063682, -0.028465271
80, 469685436, 0.37323806, 0.58331436, 0.47877684, -0.5396407, -0.10832511, -0.15413542, -0.08357906
81, 469702103, 0.37336123, 0.58328557, 0.47879872, -0.5395673, -0.0906307, -0.09682783, -0.02004242
82, 469718770, 0.37339923, 0.58334494, 0.47870162, -0.53956306, -0.15406424, -0.10539955, -0.05427456
83, 469735437, 0.37337357, 0.583477, 0.47856057, -0.53956306, -0.13436347, -0.12808163, -0.04805374
84, 469752104, 0.3732957, 0.58366394, 0.478336, -0.53961384, -0.1421281, -0.15681624, -0.033589363
85, 469768771, 0.37323835, 0.5838185, 0.4781797, -0.5396248, -0.13511078, -0.16117698, -0.021913528
86, 469785438, 0.37313747, 0.5840077, 0.47795016, -0.5396933, -0.055434342, -0.11759441, -0.032935143
87, 469802105, 0.37303895, 0.5842225, 0.47773606, -0.5397186, -0.036785316, -0.094549336, -0.06409645
88, 469818772, 0.37292904, 0.5844534, 0.4775175, -0.539738, -0.010589373, -0.12305997, -0.03470707
89, 469835439, 0.3728467, 0.5846509, 0.47736412, -0.5397166, 0.060580503, -0.1569973, -0.014087677
90, 469852106, 0.3728397, 0.5847734, 0.47731775, -0.5396296, 0.017749388, -0.1829762, -0.009863853
91, 469868773, 0.37281746, 0.5848959, 0.47728017, -0.5395456, 0.0350475, -0.11602736, 0.013742447
92, 469885440, 0.37286824, 0.5849874, 0.47729412, -0.5393988, 0.015026776, -0.113217585, -0.051753998
93, 469902107, 0.37291503, 0.5850857, 0.47730175, -0.5392531, -0.026399115, -0.08842128, -0.056798935
94, 469918774, 0.37295336, 0.5851745, 0.47732434, -0.5391102, -0.10610965, -0.1246905, -0.018829346
95, 469935441, 0.37297884, 0.5852646, 0.4773515, -0.5389707, -0.14451934, -0.12737355, -0.002483368
96, 469952108, 0.3729778, 0.5853433, 0.4773569, -0.538881, -0.15984964, -0.14917187, -0.0018444061
97, 469968775, 0.37291005, 0.5854542, 0.47730199, -0.5388561, -0.16194084, -0.113212444, 0.009926796
98, 469985442, 0.37285352, 0.5855363, 0.47726637, -0.5388377, -0.15630731, -0.12026025, 5.044937E-4
99, 470002109, 0.37273148, 0.58564484, 0.4771813, -0.53887945, -0.1128242, -0.1657429, -0.012593269
100, 470018776, 0.3726757, 0.58570117, 0.47708663, -0.5389406, -0.056304477, -0.13568063, 0.012853622
101, 470035443, 0.37254003, 0.5858273, 0.47691977, -0.5390452, -0.021935673, -0.09848271, 0.015433311
102, 470052110, 0.37242156, 0.585973, 0.4767523, -0.53911674, -0.053294986, -0.13717727, 0.0032014847
103, 470068777, 0.372275, 0.5861593, 0.4765254, -0.5392161, -0.026989972, -0.13539231, -0.025440216
104, 470085444, 0.37216535, 0.5862958, 0.47639164, -0.53926134, -0.0020491667, -0.1136845, -0.049120903
105, 470102111, 0.37206987, 0.5864142, 0.47628552, -0.53929234, -0.020271061, -0.14121728, -8.1157684E-4
106, 470118778, 0.37201056, 0.586505, 0.4761715, -0.53933525, -0.032613445, -0.14369223, -0.013979912
107, 470135445, 0.37194443, 0.58657885, 0.47606018, -0.53939885, 0.016096843, -0.08859853, -0.010427475
108, 470152112, 0.3719107, 0.5866615, 0.47595897, -0.5394215, 0.053560074, -0.08706836, 0.0021715164
109, 470168779, 0.37190238, 0.5867086, 0.47591633, -0.5394134, 0.0043674433, -0.13075732, -0.016929626
110, 470185446, 0.37192613, 0.5866991, 0.47595507, -0.5393732, -0.046315573, -0.1313085, -0.011552811
111, 470202113, 0.37199542, 0.5866455, 0.4760371, -0.5393115, -0.09211829, -0.12430159, -0.020197868
112, 470218780, 0.3720248, 0.58663106, 0.4761016, -0.53924996, -0.06146897, -0.0843149, -0.031196594
113, 470235447, 0.37208602, 0.58662707, 0.47618842, -0.53913546, -0.04380049, -0.12096611, -0.023927689
114, 470252114, 0.37214005, 0.5866239, 0.47628346, -0.5390176, -0.07699787, -0.12470101, -0.04747963
115, 470268781, 0.37230158, 0.5865708, 0.4764565, -0.5388108, -0.07413433, -0.1413867, -0.043333054
116, 470285448, 0.37242618, 0.5865658, 0.4765664, -0.538633, -0.1268721, -0.13927919, -0.012216568
117, 470302115, 0.37254196, 0.58660525, 0.47662348, -0.53845954, -0.111038215, -0.1259368, 0.04456234
118, 470318782, 0.37266245, 0.586663, 0.47666603, -0.5382754, -0.13725662, -0.12482014, 0.020384789
119, 470335449, 0.3727804, 0.58670944, 0.47671583, -0.53809893, -0.1850571, -0.13718599, -0.010130882
120, 470352116, 0.37287265, 0.58675796, 0.47673967, -0.537961, -0.19571733, -0.10920038, -0.0092077255
121, 470368783, 0.37292147, 0.5868046, 0.4767553, -0.5378624, -0.16397603, -0.09601379, -0.013048172
122, 470385450, 0.37291187, 0.58688956, 0.47670835, -0.5378181, -0.1337639, -0.12897256, 4.863739E-5
123, 470402117, 0.3729253, 0.5869373, 0.47669014, -0.5377728, -0.1042945, -0.10475672, 0.026421547
124, 470418784, 0.37294102, 0.58697945, 0.476654, -0.53774804, -0.100586526, -0.12339725, 0.016285896
125, 470435451, 0.3729421, 0.58700436, 0.47660336, -0.5377647, -0.10094203, -0.109792694, -0.0015287399
126, 470452118, 0.37299293, 0.58699703, 0.476545, -0.5377892, 0.012416927, -0.08149752, -0.02955246
127, 470468785, 0.37304655, 0.5869785, 0.47651708, -0.53779703, 0.078414716, -0.076817155, -0.032963753
128, 470485452, 0.37316358, 0.5869128, 0.47657487, -0.53773636, 0.063603856, -0.092016034, -0.052340508
129, 470502119, 0.37320846, 0.58691967, 0.4765955, -0.5376793, 0.0647051, -0.042686056, -0.02708149
130, 470518786, 0.3732286, 0.5869428, 0.47660172, -0.5376348, -0.014439272, -0.1099335, -0.017336845
131, 470535453, 0.3732223, 0.5869538, 0.47662687, -0.53760475, -0.12018616, -0.13591287, 0.015295982
132, 470552120, 0.37319675, 0.5869711, 0.47664028, -0.5375917, -0.14094101, -0.14680867, -0.04159546
133, 470568787, 0.37316525, 0.5870024, 0.47660908, -0.53760713, -0.08812926, -0.1062252, -0.045539856
134, 470585454, 0.37314162, 0.58700955, 0.47662342, -0.5376029, -0.08395236, -0.12166302, -0.07402325
135, 470602121, 0.3730685, 0.58702797, 0.4766421, -0.53761697, -0.14173594, -0.15347874, -0.05733967
136, 470618788, 0.37301382, 0.58703333, 0.47666383, -0.53762984, -0.1397061, -0.14672552, 0.00924015
137, 470635455, 0.37289232, 0.58704984, 0.47668582, -0.5376766, -0.1231448, -0.078400746, 0.046868324
138, 470652122, 0.3725768, 0.5871863, 0.47656703, -0.53785163, -0.15352121, -0.088693514, 0.05619526
139, 470668789, 0.3722465, 0.5873963, 0.4763692, -0.5380261, -0.14809544, -0.083569035, -0.03481388
140, 470685456, 0.37198734, 0.5876855, 0.4760874, -0.53813916, -0.061432984, -0.11800344, -0.11667633
141, 470702123, 0.37169155, 0.58810145, 0.47571978, -0.53821427, -0.03701386, -0.25551197, -0.13206959
142, 470718790, 0.3714869, 0.5884865, 0.47535792, -0.5382543, -0.103084624, -0.27527857, -0.0185709
143, 470735457, 0.37144408, 0.5888068, 0.47512087, -0.538143, -0.13729171, -0.20823696, -0.07085228
144, 470752124, 0.3714358, 0.58908474, 0.47495285, -0.5379929, -0.17369628, -0.17743866, -0.015366554
145, 470768791, 0.3713629, 0.58938015, 0.47476426, -0.5378857, -0.17277138, -7.59944E-4, 0.017894745
146, 470785458, 0.37113455, 0.58984, 0.4744421, -0.53782374, -0.09924109, 0.034426138, 0.008473396
147, 470802125, 0.3708466, 0.59038085, 0.47404087, -0.53778285, -0.08178283, -0.07623044, -0.026872635
148, 470818792, 0.3705903, 0.5909061, 0.4736041, -0.5377673, -0.058211602, -0.17061704, 0.05863285
149, 470835459, 0.3705672, 0.59121615, 0.47340494, -0.53761804, -0.048621554, -0.25878465, 0.039482117
150, 470852126, 0.37060395, 0.59143955, 0.4733062, -0.5374338, -0.12404869, -0.22417523, 0.020147324
151, 470868793, 0.37076294, 0.5915465, 0.47335044, -0.5371673, -0.13175072, -0.047539193, -0.005197525
152, 470885460, 0.37073958, 0.591781, 0.4732459, -0.5370173, -0.13691118, 0.07428252, -0.042301178
153, 470902127, 0.3706625, 0.59209746, 0.47308272, -0.5368656, -0.1827272, 2.7335633E-4, -0.00497818
154, 470918794, 0.37062287, 0.5924417, 0.47283858, -0.5367281, -0.13673294, -0.16292061, 0.013711929
155, 470935461, 0.37071672, 0.59270644, 0.4726261, -0.5365581, -0.11201419, -0.17129609, 0.03745079
156, 470952128, 0.37082428, 0.59293675, 0.47244167, -0.5363917, -0.108999, -0.13731295, -0.0058460236
157, 470968795, 0.37097505, 0.5931261, 0.47227237, -0.5362273, -0.11183895, -0.080668285, -0.01783657
158, 470985462, 0.37110585, 0.59327215, 0.4720798, -0.5361445, -0.11480497, -0.049752865, 0.024898529
159, 471002129, 0.371339, 0.5932855, 0.4720277, -0.5360142, -0.027669227, -0.08340543, 0.03692341
160, 471018796, 0.37154797, 0.59324867, 0.47202367, -0.5359137, 0.08012649, 0.0028390617, 0.019487381
161, 471035463, 0.37178436, 0.59314686, 0.47204894, -0.53584015, 0.2071137, -0.064053446, 0.048387527
162, 471052130, 0.3721847, 0.5930499, 0.47221166, -0.5355262, 0.32377204, -0.10524711, -0.10235405
163, 471068797, 0.37266675, 0.59294575, 0.47241384, -0.5351279, -0.064982034, -0.24533609, -0.19104671
164, 471085464, 0.37272692, 0.5927589, 0.47264838, -0.5350858, -0.70671064, -0.2761668, -0.12883472
165, 471102131, 0.37247995, 0.5924835, 0.47276732, -0.5354576, -0.90045166, -0.034136686, -0.03289509
166, 471118798, 0.372325, 0.59212404, 0.4729446, -0.5358064, -0.2669831, -0.35773203, -0.21443462
167, 471135465, 0.37153006, 0.59163034, 0.47322324, -0.53665656, -1.0946418, -0.35866788, 0.21002102
168, 471152132, 0.37109995, 0.5906698, 0.47364074, -0.5376432, -0.6816098, -0.5459065, 0.0038032532
169, 471168799, 0.36986977, 0.58966494, 0.47474453, -0.5386197, -0.8326021, 0.15002033, 0.48997116
170, 471185466, 0.3685367, 0.5888854, 0.47548154, -0.5397348, 0.165181, -0.7534302, 1.197422
171, 471202133, 0.36776245, 0.58811986, 0.47625574, -0.5404147, 0.4846124, -0.17644449, -0.12893677
172, 471218800, 0.36779433, 0.5880611, 0.47692034, -0.53987074, -0.6542085, -0.75556475, -0.46099663
173, 471235467, 0.37014353, 0.5880118, 0.47666544, -0.53854257, -1.5799675, -0.65968186, -0.29583645
174, 471252134, 0.37265608, 0.588015, 0.47620562, -0.53721106, -2.763664, -0.15030788, 0.30725765
175, 471268801, 0.37397206, 0.587381, 0.4759791, -0.5371909, -3.4808521, -0.95775926, 0.91116524
176, 471285468, 0.37461478, 0.5857881, 0.47635064, -0.5381524, -2.3895016, -0.4405286, 0.38758373
177, 471302135, 0.37511352, 0.5834864, 0.47749525, -0.53928983, -0.53384405, 0.6450451, -0.57860756
178, 471318802, 0.37586576, 0.5810561, 0.47918007, -0.5398952, 1.0282929, 0.4615491, -1.2642536
179, 471335469, 0.37674072, 0.57857984, 0.481329, -0.5400331, 1.0363389, 0.0064394083, -1.1133623
180, 471352136, 0.37729266, 0.5764185, 0.48321864, -0.5402716, 0.20579632, 0.08028295, -0.507741
181, 471368803, 0.37745205, 0.57504135, 0.484065, -0.5408699, 0.40064418, 0.09719752, -0.3092289
182, 471385470, 0.3772039, 0.57423514, 0.48440677, -0.54159313, 0.90224916, 0.15092042, -0.18453598
183, 471402137, 0.37653166, 0.573504, 0.48486736, -0.5424229, 0.5582813, -0.02782267, 0.46410656
184, 471418804, 0.3759659, 0.57250553, 0.4856746, -0.5431476, 0.37632585, -0.297329, 0.43035698
185, 471435471, 0.37579376, 0.5710802, 0.4870744, -0.54351324, 0.31558532, -0.328904, 0.044013977
186, 471452138, 0.37597263, 0.569389, 0.48872417, -0.54368293, -0.1419067, -0.41188967, 0.15740108
187, 471468805, 0.3760772, 0.56769997, 0.49024934, -0.5440036, -0.6433674, -0.4243798, 0.41637707
188, 471485472, 0.37572312, 0.5661934, 0.49140838, -0.5447721, -0.9765833, -0.48240465, 0.66615486
189, 471502139, 0.3749145, 0.56494087, 0.4920906, -0.5460124, -0.73310673, -0.400187, 0.66160107
190, 471518806, 0.37394363, 0.5638736, 0.4925564, -0.54735976, -0.07091753, -0.061460253, 0.21359825
191, 471535473, 0.37291664, 0.56285983, 0.49306405, -0.54864526, 0.29314262, -0.30651674, -0.044211388
192, 471552140, 0.3723656, 0.56161344, 0.49388692, -0.5495558, 0.614141, -0.46814543, -0.27178955
193, 471568807, 0.37230366, 0.5601985, 0.49523696, -0.5498268, 0.6914858, -0.32693306, -0.39819622
194, 471585474, 0.3725049, 0.5588009, 0.49688, -0.5496302, 0.24237119, -0.39745408, -0.3287344
195, 471602141, 0.37258455, 0.5575201, 0.4984685, -0.5494387, -0.7050978, -0.4826142, 0.17588711
196, 471618808, 0.37212285, 0.5563543, 0.4996628, -0.54984844, -1.7808341, -0.6345771, 0.7197542
197, 471635475, 0.3708974, 0.5551832, 0.5004461, -0.55114645, -2.1214073, -0.6398398, 0.7701311
198, 471652142, 0.3694986, 0.5539935, 0.5009884, -0.5527876, -1.5829688, -0.61515886, 0.59346104
199, 471668809, 0.3685008, 0.5525909, 0.50160104, -0.5543, -0.98049647, -0.5928034, 0.017620087
200, 471685476, 0.36747006, 0.5509455, 0.50242287, -0.5558759, -0.8840904, -0.4425077, -0.33368397
201, 471702143, 0.36607698, 0.5491415, 0.50339895, -0.55769384, -0.94620234, -0.49849188, 0.020137787
202, 471718810, 0.36479917, 0.5473031, 0.5043518, -0.55947447, -0.53872526, -0.72866696, 0.7463865
203, 471735477, 0.36381584, 0.54562134, 0.50525975, -0.56093645, -0.7466475, -0.68364525, 0.86747074
204, 471752144, 0.36268634, 0.544458, 0.50569415, -0.5624049, -1.6379124, -0.34602386, 0.66151524
205, 471768811, 0.36114478, 0.54389715, 0.5051954, -0.5643842, -2.0311275, -0.40255633, 0.024539948
206, 471785478, 0.35952127, 0.54347515, 0.5038997, -0.5669797, -1.823801, -0.54971826, -0.4482069
207, 471802145, 0.35736278, 0.5429632, 0.5021269, -0.5703972, -1.7628665, -0.14717579, -0.4672985
208, 471818812, 0.3545794, 0.5423039, 0.49999484, -0.5746188, -1.1472739, 0.22690198, -0.3763218
209, 471835479, 0.35141405, 0.54139954, 0.49830806, -0.5788658, -0.19652735, 0.3453017, -0.06884098
210, 471852146, 0.34841588, 0.5400074, 0.49734628, -0.58279234, 0.64601034, 0.39472198, -0.4752903
211, 471868813, 0.34549066, 0.53827256, 0.49716184, -0.5862853, 1.2904131, 0.52742374, -0.5864763
212, 471885480, 0.34286144, 0.5361508, 0.4975947, -0.58939767, 1.1490217, 0.24322747, -0.052775383
213, 471902147, 0.34035873, 0.5336166, 0.49841493, -0.59244704, 0.6889259, 0.09970332, 0.3809271
214, 471918814, 0.33800524, 0.53078353, 0.49966434, -0.59528035, 0.7625247, -0.05357516, 0.24175072
215, 471935481, 0.33568707, 0.52768284, 0.5013859, -0.5978953, 0.83401376, -0.10249164, -0.11763191
216, 471952148, 0.333198, 0.5244629, 0.50320184, -0.60058916, 0.5046312, -0.08396041, -0.3770609
217, 471968815, 0.33026215, 0.5213142, 0.5046754, -0.6037078, -0.11752434, -0.017930992, -0.52618504
218, 471985482, 0.3270644, 0.5180578, 0.5058356, -0.6072703, -0.5683026, -0.13307694, -0.5025158
219, 472002149, 0.32360053, 0.5145236, 0.5068639, -0.6112602, -0.8361537, 0.089468546, -0.5212383
220, 472018816, 0.31999922, 0.5108227, 0.507891, -0.6153934, -0.61522603, 0.15586151, -0.8366842
221, 472035483, 0.31597644, 0.5072304, 0.5084491, -0.61996555, -0.44915622, 0.08689144, -0.8784189
222, 472052150, 0.3117923, 0.50383854, 0.50833064, -0.62492716, -0.27639645, -0.1499906, -0.38662338
223, 472068817, 0.30771402, 0.50087196, 0.507084, -0.630323, 0.09686604, -0.31796128, -0.48196316
224, 472085484, 0.30397418, 0.49793336, 0.5051325, -0.6360071, 0.4023049, -0.46142316, -0.9526987
225, 472102151, 0.30096757, 0.4948181, 0.5030577, -0.64148927, 0.5980973, 0.03585472, -0.96438503
226, 472118818, 0.2985754, 0.491554, 0.50070846, -0.64693135, 1.0553697, 0.28881976, -0.53821754
227, 472135485, 0.29614156, 0.48799792, 0.4988019, -0.65219384, 1.235776, 0.94755113, 0.065039635
228, 472152152, 0.2930675, 0.48438826, 0.49721596, -0.65746313, 0.96523434, 1.874713, 0.7215624
229, 472168819, 0.28967345, 0.48126194, 0.49543074, -0.6625906, 1.5846735, 2.2554486, 0.38903522
230, 472185486, 0.2862687, 0.47904715, 0.49269888, -0.6676926, 2.9760745, 2.1628737, 0.27739334
231, 472202153, 0.2826603, 0.478202, 0.488815, -0.672672, 4.3194137, 2.16789, 0.27685165
232, 472218820, 0.27895918, 0.47899362, 0.48327854, -0.6776358, 5.2567225, 2.1220493, -0.4873829
233, 472235487, 0.27557272, 0.48189363, 0.47613323, -0.68200946, 6.592418, 2.2824392, -2.2387733
234, 472252154, 0.27429903, 0.48861182, 0.46680823, -0.6841859, 9.089768, 0.8309646, -4.3329234
235, 472268821, 0.27609682, 0.49857458, 0.45485616, -0.68432546, 10.009658, -0.9548435, -5.4631896
236, 472285488, 0.28298476, 0.5088752, 0.43998697, -0.68365103, 10.566244, -2.6988611, -4.1372013
237, 472302155, 0.29685432, 0.5165766, 0.4250784, -0.68142205, 11.384159, -2.4169784, -1.6457291
238, 472318822, 0.3119975, 0.5266205, 0.417741, -0.67143315, 9.872849, -0.7232906, -2.598773
239, 472335489, 0.32773, 0.53863025, 0.4177494, -0.65418476, 7.489392, 1.8278503, -0.9913454
240, 472352156, 0.34147578, 0.5526951, 0.41944304, -0.6340281, 6.079308, 6.0090923, 1.3792076
241, 472368823, 0.3510221, 0.5693873, 0.4211217, -0.61256826, 2.9635863, 5.822457, 3.1504307
242, 472385490, 0.3603242, 0.58596325, 0.419065, -0.59262115, -0.7453565, 1.360974, 7.3843193
243, 472402157, 0.36864832, 0.603486, 0.41302186, -0.5738622, -3.8499713, 0.84218967, 7.4416027
244, 472418824, 0.37623742, 0.62176645, 0.40762284, -0.5528989, -3.2470875, 1.5113479, 5.170994
245, 472435491, 0.38212696, 0.6403149, 0.40226275, -0.5311895, -2.8897793, 1.0814502, 4.0696745
246, 472452158, 0.38495776, 0.65880466, 0.39687532, -0.51017237, -3.4950583, 0.57842094, 3.0613384
247, 472468825, 0.38291258, 0.6784565, 0.39183524, -0.4894298, -4.2124095, 0.28827372, 2.029212
248, 472485492, 0.37975714, 0.6962075, 0.38919434, -0.46862453, -5.30372, -2.220578, 1.0066938
249, 472502159, 0.38207266, 0.70804137, 0.39086762, -0.4471264, -5.2482176, -3.2137637, -0.08101463
250, 472518826, 0.38941896, 0.714525, 0.39738107, -0.42414257, -5.515138, -2.1836884, -1.0172806
251, 472535493, 0.3986137, 0.7172702, 0.40638927, -0.40184596, -6.1219134, -1.3664564, -1.7384853
252, 472552160, 0.40741205, 0.7178032, 0.41503727, -0.38277924, -6.7323356, -0.21097864, -2.8086843
253, 472568827, 0.40944996, 0.7202803, 0.41789234, -0.37271273, -7.512849, 2.0003679, -2.9208589
254, 472585494, 0.4048504, 0.7258753, 0.41535896, -0.3697024, -7.7614536, 2.211752, -4.2927933
255, 472602161, 0.39803094, 0.73200023, 0.41210103, -0.36867526, -6.628311, -0.56631845, -4.933057
256, 472618828, 0.3936946, 0.73607993, 0.40972224, -0.36785892, -4.7878017, -3.0802338, -3.8711967
257, 472635495, 0.39201385, 0.73764896, 0.41034976, -0.3658056, -3.6584659, -2.8691483, -2.6701398
258, 472652162, 0.39185488, 0.7369322, 0.41459885, -0.3626157, -2.9311743, -0.6088047, -1.6725111
259, 472668829, 0.39286667, 0.7342923, 0.42040908, -0.36017847, -0.64029634, -1.515414, -1.1987209
260, 472685496, 0.39411122, 0.7312709, 0.42451596, -0.36014897, 2.1139226, -1.2224063, 0.68459797
261, 472702163, 0.39370638, 0.72938323, 0.42779765, -0.360536, 2.783708, -0.08588217, 1.1788921
262, 472718830, 0.3948755, 0.7268581, 0.43042788, -0.3612261, 2.2106018, -1.266498, 0.84805393
263, 472735497, 0.3980733, 0.72423244, 0.43286514, -0.3600758, 1.7190031, -1.3157376, 1.2297916
264, 472752164, 0.40245745, 0.7215545, 0.4351815, -0.35777897, 1.8946474, -1.7529839, 2.049137
265, 472768831, 0.40670818, 0.71901214, 0.43782318, -0.35485584, 2.8890753, -1.4459773, 3.4250078
266, 472785498, 0.41104394, 0.71574557, 0.44173473, -0.35160154, 2.5043797, -0.66353756, 3.2268028
267, 472802165, 0.41703644, 0.71058416, 0.44676793, -0.34864205, 0.27154076, -0.2011163, 1.9069481
268, 472818832, 0.42363518, 0.70399886, 0.45232046, -0.3468818, -2.4500597, -0.7501524, 0.49078178
269, 472835499, 0.43058878, 0.6958486, 0.45821893, -0.3470239, -4.620965, -2.3078167, 0.2741394
270, 472852166, 0.43633348, 0.6869651, 0.46469525, -0.34893003, -7.094243, -4.519179, 6.1158123
271, 472868833, 0.44322467, 0.6786665, 0.46935996, -0.3502382, 2.0150416, -2.8649337, 5.0791054
272, 472885500, 0.4517459, 0.67214423, 0.47204915, -0.34830907, 8.106352, -0.2909942, 1.6398735
273, 472902167, 0.4580508, 0.66419625, 0.47607392, -0.34984025, -1.8734626, -3.503141, -3.1155086
274, 472918834, 0.4656168, 0.65129584, 0.48597893, -0.35048687, -8.009968, -0.0695094, -2.547176
275, 472935501, 0.46563634, 0.6435441, 0.49500188, -0.35214907, -7.592907, 2.5562952, 0.02986145
276, 472952168, 0.46237445, 0.63855594, 0.49945444, -0.35917032, -6.0387616, 2.3225062, -2.1378589
277, 472968835, 0.45902893, 0.632229, 0.5056061, -0.36598292, -6.382317, 1.9926853, -2.9849095
278, 472985502, 0.44908676, 0.6307936, 0.5094653, -0.37532383, -1.8541436, -1.419704, 0.599453
279, 473002169, 0.437888, 0.630814, 0.51065606, -0.38673013, -1.5900486, -1.8646611, 1.6984739
280, 473018836, 0.429519, 0.62908643, 0.51174307, -0.39734718, -0.59525436, -0.12162636, 0.7464247
281, 473035503, 0.4246352, 0.6264352, 0.5121936, -0.4061076, 0.9780768, 0.09904038, 0.10822487
282, 473052170, 0.42069766, 0.62318105, 0.5123099, -0.4149691, -0.3122978, 0.17370242, -0.3685646
283, 473068837, 0.4148263, 0.6195904, 0.5136428, -0.42449972, -1.6149857, 1.0561633, -0.6121292
284, 473085504, 0.40673614, 0.616084, 0.5163386, -0.43405402, -1.8208871, 1.5369495, -0.33585453
285, 473102171, 0.39829487, 0.61246085, 0.5187362, -0.44403565, -1.1596143, 0.44804513, -0.2086029
286, 473118838, 0.39087185, 0.60878855, 0.51944095, -0.45472938, -0.021144772, -0.49759772, -0.36583138
287, 473135505, 0.3857707, 0.60434264, 0.51985794, -0.46443564, 1.2242678, -1.2763907, -0.058419228
288, 473152172, 0.38205278, 0.59891045, 0.52108103, -0.4730946, 0.8821444, -0.76650906, 0.106850624
289, 473168839, 0.3773297, 0.59355503, 0.523089, -0.48134655, 0.4010142, 0.48657608, -0.34891987
290, 473185506, 0.3710549, 0.5888744, 0.52487886, -0.48994812, 0.58965, 1.0632889, -0.8478861
291, 473202173, 0.36389452, 0.5848021, 0.52615654, -0.49874702, 1.2407491, 1.2263799, -0.7739277
292, 473218840, 0.35702348, 0.5812714, 0.5271882, -0.5066879, 2.3701918, 0.15560056, -0.9472275
293, 473235507, 0.35177305, 0.5775303, 0.52827007, -0.5134659, 2.5004096, -0.28499088, -1.3566628
294, 473252174, 0.34772953, 0.5734899, 0.53022075, -0.5187113, 2.1718323, 0.28661937, -1.0969286
295, 473268841, 0.34388998, 0.5694445, 0.5325204, -0.5233514, 1.4563049, 0.46905267, -0.57003593
296, 473285508, 0.3396269, 0.56587225, 0.5343886, -0.52808416, 0.93393224, 0.5293978, -0.377079
297, 473302175, 0.33539784, 0.5625214, 0.53546244, -0.5332542, 0.52073175, 0.656291, -0.40052223
298, 473318842, 0.3311893, 0.5594658, 0.5358839, -0.5386481, 0.41255486, 0.62069064, -0.42047596
299, 473335509, 0.32718357, 0.55660474, 0.5357467, -0.54416853, 0.11730418, 0.9715422, -0.08705902
300, 473352176, 0.32347372, 0.55379134, 0.5352786, -0.5496897, -0.20953311, 0.76635283, 0.5647917
301, 473368843, 0.31944516, 0.55104524, 0.53442615, -0.5556029, -0.29300135, 1.6068089, 1.7523584
302, 473385510, 0.31463125, 0.5487862, 0.5319607, -0.5629039, 0.34502175, 0.28333375, 2.125574
303, 473402177, 0.31126347, 0.5456396, 0.5288768, -0.5706872, 1.4969181, 0.026843458, 1.9008102
304, 473418844, 0.30890158, 0.5420946, 0.5256082, -0.5783175, 2.631794, 1.0154965, 1.3947697
305, 473435511, 0.30707166, 0.5390614, 0.5213687, -0.58591497, 4.5090485, 1.6357564, 0.4219761
306, 473452178, 0.30548102, 0.53677803, 0.5160959, -0.59346235, 5.8623114, 2.455235, -0.4084654
307, 473468845, 0.30481526, 0.53565985, 0.5101043, -0.5999596, 7.879383, 3.1993546, -1.7026434
308, 473485512, 0.30567005, 0.5377708, 0.50287324, -0.60372895, 10.577302, 3.2031739, -2.7726073
309, 473502179, 0.30802977, 0.543964, 0.49294087, -0.60517097, 12.850301, 1.8375528, -2.68019
310, 473518846, 0.31031, 0.55596286, 0.47922432, -0.6041184, 13.307696, 0.63426006, -3.362564
311, 473535513, 0.31169978, 0.5738445, 0.46030733, -0.6013857, 9.669362, -2.0970898, -2.8157601
312, 473552180, 0.31763038, 0.59134483, 0.44027388, -0.59630805, 4.50786, -4.6762595, -0.7380724
313, 473568847, 0.32931703, 0.60252094, 0.42730924, -0.58815604, -1.4225767, -1.2638339, 2.7488337
314, 473585514, 0.33961818, 0.6134152, 0.42095155, -0.57548517, -2.9585052, 5.7275653, 4.5530195
315, 473602181, 0.345659, 0.63212776, 0.41521257, -0.555459, 1.9020003, 5.15441, 6.0135107
316, 473618848, 0.35409567, 0.64792186, 0.40920496, -0.5360663, -0.38787264, 1.7146785, 4.010209
317, 473635515, 0.364272, 0.6598984, 0.403875, -0.5183891, -3.2089965, 0.3326644, 3.1693678
318, 473652182, 0.37306222, 0.6712231, 0.39737433, -0.502374, -3.313329, -0.22053488, 2.6673746
319, 473668849, 0.37829858, 0.6848382, 0.39117736, -0.48463315, -2.4089458, -0.40562236, 2.1020975
320, 473685516, 0.38282874, 0.69715035, 0.38790545, -0.46578434, -3.9114258, -2.2706304, 1.8968601
321, 473702183, 0.38892534, 0.7044557, 0.38890302, -0.44859275, -5.887685, -2.8120573, 0.03370571
322, 473718850, 0.39352092, 0.7104932, 0.39630702, -0.42811584, -5.6897216, -1.1747867, -1.0175028
323, 473735517, 0.39858475, 0.71371716, 0.40897885, -0.4055569, -6.3176713, -2.0824094, -1.2814932
324, 473752184, 0.40824336, 0.7118472, 0.42348003, -0.38376755, -6.3347554, -2.2633567, -2.754703
325, 473768851, 0.41823897, 0.7078188, 0.43386367, -0.3685551, -6.8614345, -1.2052935, -4.053485
326, 473785518, 0.4236766, 0.70600915, 0.4396094, -0.35888007, -6.6334724, 0.846903, -5.4512167
327, 473802185, 0.42161325, 0.707717, 0.44193903, -0.35506478, -7.1892405, 1.2726924, -5.4572887
328, 473818852, 0.4149462, 0.71149516, 0.43992695, -0.35785556, -6.432568, 0.7287964, -4.8996077
329, 473835519, 0.40698323, 0.7162936, 0.4357727, -0.36248082, -5.2429094, -0.30979115, -4.634847
330, 473852186, 0.39709035, 0.72234994, 0.43025142, -0.3679886, -4.074365, -1.9955599, -3.6152797
331, 473868853, 0.3844613, 0.7297004, 0.42310306, -0.3751168, -2.4525015, -3.8127327, -2.442625
332, 473885520, 0.3759825, 0.73491746, 0.4180911, -0.37912413, -0.3430296, -3.2050564, -1.2547226
333, 473902187, 0.37608075, 0.734338, 0.4196852, -0.37838805, 1.1543816, -1.2645746, 1.4003162
334, 473918854, 0.37771273, 0.7309673, 0.42534027, -0.37697136, 4.1055984, 0.72023565, 3.3623314
335, 473935521, 0.37530497, 0.7293209, 0.42823526, -0.37928063, 6.480955, 1.1211423, 2.8199596
336, 473952188, 0.3767277, 0.7263217, 0.42885536, -0.3829076, 7.453456, -1.7123158, 2.6913319
337, 473968855, 0.38200766, 0.7227367, 0.4307528, -0.38232985, 7.401424, -1.4746996, 3.699729
338, 473985522, 0.3876234, 0.71939796, 0.4345221, -0.37869164, 6.381039, -0.10320755, 4.0425177
339, 474002189, 0.39647722, 0.7141418, 0.44122592, -0.371657, 3.7278337, 0.012461741, 2.8032513
340, 474018856, 0.4088149, 0.7062913, 0.44893602, -0.36398003, -0.9531008, -1.0304416, 0.68608093
341, 474035523, 0.42129996, 0.696167, 0.45596823, -0.36049008, -6.4748735, -4.9478765, 4.5508137
342, 474052190, 0.43610168, 0.6837544, 0.46533567, -0.35462654, -2.7781332, -2.8265307, 6.824169
343, 474068857, 0.4533051, 0.6709275, 0.47419024, -0.3457114, 7.44302, -1.371277, 2.416829
344, 474085524, 0.46802893, 0.6575919, 0.4822528, -0.3405234, -1.4363412, -2.158296, -3.438919
345, 474102191, 0.48079744, 0.64235044, 0.49374923, -0.3353112, -10.7821045, -0.5210154, -3.3555384
346, 474118858, 0.48394483, 0.63227904, 0.5051006, -0.33301055, -16.500864, 1.6329572, -3.6753535
347, 474135525, 0.47621176, 0.6281611, 0.51145256, -0.34213203, -14.848554, 3.2732015, -2.107201
348, 474152192, 0.46391517, 0.6251609, 0.51643753, -0.35672227, -11.656809, 0.8199843, -1.4775743
349, 474168859, 0.44970474, 0.62380105, 0.51912767, -0.37302354, -2.2505994, -4.465856, 3.2994175
350, 474185526, 0.43948212, 0.62174356, 0.5187879, -0.3887819, 1.8467805, -3.5194507, 2.588521
351, 474202193, 0.4335524, 0.6154047, 0.5220764, -0.4009335, -6.242717E-4, 0.17935932, -0.0969944
352, 474218860, 0.4265573, 0.6080151, 0.5268069, -0.41333178, -2.1324236, 0.77548695, 1.1211805
353, 474235527, 0.41549, 0.6016759, 0.5308665, -0.4284119, -3.7337253, 2.0067549, -0.024813652
354, 474252194, 0.40242487, 0.5964492, 0.5330648, -0.44513634, -2.317601, 0.86568904, -0.6394291
355, 474268861, 0.39198482, 0.58989257, 0.5351574, -0.46041638, 0.7246527, -0.69020534, -0.27915955
356, 474285528, 0.3842301, 0.5810352, 0.53923196, -0.4732824, 1.2066644, 0.043091733, -0.5646868
357, 474302195, 0.37610346, 0.5725667, 0.5432608, -0.48536915, 1.7657686, 1.0663074, -1.1308775
358, 474318862, 0.36860022, 0.5646537, 0.54712915, -0.49593532, 2.0898142, 0.941342, -0.6941395
359, 474335529, 0.3621684, 0.55731356, 0.55036306, -0.50531, 2.1037216, 0.44883168, -0.47126198
360, 474352196, 0.35533634, 0.55089694, 0.55299383, -0.5142456, 1.1524007, 1.176616, -0.5640497
361, 474368863, 0.3476692, 0.54593545, 0.5537115, -0.52391446, 0.9651663, 0.3108453, -0.82586575
362, 474385530, 0.34074637, 0.5417734, 0.5526219, -0.53383946, 0.958445, -0.5185639, -1.0637579
363, 474402197, 0.33460104, 0.5375996, 0.55092406, -0.54361165, 1.0828675, 0.021396449, -0.1342125
364, 474418864, 0.32837543, 0.53347117, 0.5489735, -0.55336064, 1.329305, 0.83774376, 0.64341164
365, 474435531, 0.322422, 0.529274, 0.5470711, -0.56269735, 1.357595, 1.0735666, 0.18935394
366, 474452198, 0.3160518, 0.5257325, 0.5446107, -0.57194245, 1.5627562, 1.5670954, 0.37963295
367, 474468865, 0.3098439, 0.5230584, 0.5407293, -0.5813955, 2.0335612, 1.3151757, 0.73711395
368, 474485532, 0.30430895, 0.52086383, 0.5353271, -0.5912053, 3.1397755, 0.9067022, 0.868906
369, 474502199, 0.2996245, 0.5188207, 0.52929795, -0.6007462, 3.9882026, 1.0954292, 0.012701035
370, 474518866, 0.29626846, 0.5170749, 0.5234347, -0.60899633, 5.044375, 1.0829084, -1.1273642
371, 474535533, 0.29445848, 0.515755, 0.51800597, -0.61559945, 5.5325484, 1.1909522, -1.4704714
372, 474552200, 0.2933882, 0.5151447, 0.51259017, -0.62113, 5.4869304, 1.8707333, -0.5156088
373, 474568867, 0.29308534, 0.5159783, 0.5057117, -0.626199, 6.2752557, 2.674991, -0.69970226
374, 474585534, 0.29365596, 0.51849073, 0.4964593, -0.6312398, 8.202515, 3.4610672, -2.2052717
375, 474602201, 0.29546708, 0.52337414, 0.4858336, -0.6346232, 10.643271, 3.5415006, -3.473155
376, 474618868, 0.29947448, 0.5343148, 0.4724501, -0.63373154, 15.880957, 1.3646785, -5.758743
377, 474635535, 0.3031364, 0.5512242, 0.4527882, -0.63185847, 12.305166, -2.6389635, -5.7791286
378, 474652202, 0.31148362, 0.56513107, 0.43413332, -0.6285976, 5.724919, -2.3603764, -3.6065125
379, 474668869, 0.3278819, 0.5721939, 0.42416748, -0.6206218, 3.349426, 2.8735602, 1.6419668
380, 474685536, 0.34536317, 0.5835955, 0.42138827, -0.60214144, 2.692437, 6.5744395, 7.0088596
381, 474702203, 0.35741234, 0.6000078, 0.41812512, -0.58087873, 1.5644594, 2.904232, 7.4493694
382, 474718870, 0.3675689, 0.61559325, 0.4141983, -0.5606957, -0.9542041, 1.6299957, 7.0222816
383, 474735537, 0.37416345, 0.6324034, 0.40739784, -0.54230696, -3.1971986, 0.89829296, 6.0953026
384, 474752204, 0.37621462, 0.65094715, 0.39987496, -0.5242446, -3.593102, -0.5604228, 3.8050957
385, 474768871, 0.3766671, 0.6689979, 0.39385065, -0.50541806, -4.941011, -1.7987725, 2.71517
386, 474785538, 0.37676245, 0.68427235, 0.38931736, -0.48811418, -6.1202874, -2.929568, 0.94220734
387, 474802205, 0.37603217, 0.6975372, 0.38962814, -0.46929088, -4.9404273, -2.5565944, -0.6008396
388, 474818872, 0.37756866, 0.70725423, 0.39483094, -0.44871378, -4.6545315, -3.43924, -0.29407406
389, 474835539, 0.38672101, 0.7103813, 0.4062866, -0.42513317, -4.9450397, -2.3457525, -1.6697769
390, 474852206, 0.40099892, 0.70741177, 0.42255136, -0.400276, -7.4168015, -1.2721643, -2.8631372
391, 474868873, 0.4124751, 0.7033651, 0.4331388, -0.38410217, -8.237671, 1.7549285, -3.8481069
392, 474885540, 0.41535687, 0.70466375, 0.43584263, -0.375461, -7.7201285, 3.0049138, -5.3232083
393, 474902207, 0.41189313, 0.70936143, 0.4350291, -0.37135178, -7.9141984, 1.1624019, -5.1319485
394, 474918874, 0.40721434, 0.7138414, 0.4320063, -0.37145612, -7.762755, -0.20277101, -4.871636
395, 474935541, 0.401813, 0.71815634, 0.42811835, -0.37351674, -6.6315546, -0.97598684, -4.584983
396, 474952208, 0.39162186, 0.72437125, 0.42353442, -0.37754363, -4.2896385, -2.412989, -3.490497
397, 474968875, 0.37851617, 0.73177147, 0.41916212, -0.38149887, -1.7966595, -2.2999456, -2.0722466
398, 474985542, 0.3673691, 0.73703325, 0.4175795, -0.38399395, -0.37070897, -0.9401923, -0.20033264
399, 475002209, 0.36336762, 0.7370812, 0.41945624, -0.38566002, 3.8768027, -3.3482604, 1.0936575
400, 475018876, 0.3646223, 0.7350071, 0.42174882, -0.3859342, 8.339652, -2.6262612, 1.6885891
401, 475035543, 0.37055066, 0.7319621, 0.42387956, -0.38373443, 9.867244, -2.5633602, 2.5200777
402, 475052210, 0.3758408, 0.7300283, 0.42635998, -0.3795021, 9.500303, -0.36175394, 4.1906233
403, 475068877, 0.38038808, 0.72965336, 0.42927423, -0.37233955, 8.164789, 0.8491892, 5.824909
404, 475085544, 0.38947597, 0.72667485, 0.4342025, -0.3629361, 3.705316, 0.14657712, 3.8565893
405, 475102211, 0.401276, 0.7213544, 0.4401561, -0.3533986, -1.3915651, -0.67372125, 1.3675117
406, 475118878, 0.41371158, 0.7142922, 0.44551402, -0.34662515, -5.8698983, -1.7148763, -0.36756897
407, 475135545, 0.42694658, 0.70403665, 0.4514646, -0.34384763, -10.253114, -3.5609307, -2.858263
408, 475152212, 0.43631265, 0.69225353, 0.4615865, -0.34257346, -13.062811, -3.0561647, 7.305361
409, 475168879, 0.44488984, 0.68188345, 0.468745, -0.3426199, 0.84995675, -2.102041, 7.113512
410, 475185546, 0.44833484, 0.6787154, 0.4700647, -0.34261176, 14.154873, -2.2601805, 2.6623507
411, 475202213, 0.45969003, 0.6655864, 0.47800514, -0.34233522, -0.6741106, -3.6210825, -5.1550007
412, 475218880, 0.47034082, 0.6480032, 0.49538082, -0.33685568, -13.736197, 1.9960837, -3.731904
413, 475235547, 0.4762392, 0.6353726, 0.5053974, -0.33774808, -14.236399, 2.240675, 0.021409035
414, 475252214, 0.47399572, 0.62853736, 0.51281416, -0.3424806, -8.999997, 5.5860233, -3.50384
415, 475268881, 0.4636326, 0.6257468, 0.5194871, -0.35159874, -3.5379252, 0.7208864, 0.008776665
416, 475285548, 0.45180425, 0.62374634, 0.5238492, -0.36386514, -2.6676602, -2.5635107, 1.2558975
417, 475302215, 0.44021806, 0.62274826, 0.5262473, -0.37611023, -1.2898419, -1.5016286, 0.220047
418, 475318882, 0.43283316, 0.6200161, 0.5277893, -0.3868805, 0.4792996, -1.6095436, 0.5477686
419, 475335549, 0.42747894, 0.61601514, 0.52840364, -0.39822006, 0.0978951, -1.6866156, 0.75699997
420, 475352216, 0.42043263, 0.6114074, 0.5304562, -0.40992188, -1.5575566, -0.006606596, -0.23768234
421, 475368883, 0.4103696, 0.6069519, 0.5338587, -0.42214182, -2.2245219, 1.8967538, -0.3387146
422, 475385550, 0.39948648, 0.6022177, 0.53704727, -0.43511736, -2.0952637, 1.2569828, -0.23483658
423, 475402217, 0.38965973, 0.59729934, 0.5389755, -0.44822603, -0.06866318, -0.45536405, -0.014947891
424, 475418884, 0.38200945, 0.5909679, 0.5407761, -0.46085706, 0.6196859, -0.8932224, -0.07920742
425, 475435551, 0.3749195, 0.5836433, 0.54330087, -0.47288746, 0.010876588, 0.3716549, -0.017938614
426, 475452218, 0.36766863, 0.5760316, 0.54706, -0.48346168, 0.13377641, 0.9051231, -0.4943552
427, 475468885, 0.3597427, 0.5690233, 0.5503094, -0.49392268, 0.9581882, 0.8607561, -1.0563669
428, 475485552, 0.35176247, 0.56280136, 0.5519504, -0.5048474, 1.3144317, 0.25875202, -1.2838964
429, 475502219, 0.34498173, 0.5569668, 0.55291224, -0.51484567, 1.6977013, 0.22862671, -1.3752432
430, 475518886, 0.33905974, 0.55163985, 0.553677, -0.52361834, 1.6570728, 0.8470184, -1.233633
431, 475535553, 0.33302367, 0.54720634, 0.55387497, -0.5318697, 1.6941893, 1.1002376, -0.35069275
432, 475552220, 0.3263768, 0.5440369, 0.5524731, -0.5406275, 1.4349675, 1.3592281, -0.10982323
433, 475568887, 0.31891295, 0.54231423, 0.54917747, -0.5500874, 1.8141257, 1.3550634, 0.38880634
434, 475585554, 0.31233084, 0.5408647, 0.5444575, -0.55989593, 1.7048082, 0.16676079, 0.45060444
435, 475602221, 0.30734637, 0.5388707, 0.53990436, -0.56891334, 2.51358, -0.36969712, 1.237606
436, 475618888, 0.30379426, 0.5354199, 0.5370595, -0.5767185, 2.6777835, -0.27144217, 1.8194532
437, 475635555, 0.30081615, 0.53161716, 0.53462523, -0.58401316, 2.4277105, 1.0463735, 2.3536968
438, 475652222, 0.29861093, 0.52810204, 0.5312284, -0.59138703, 3.4395907, 1.670237, 1.9814634
439, 475668889, 0.29742163, 0.5252375, 0.52673215, -0.59851617, 4.9772367, 2.0221493, 0.6594744
440, 475685556, 0.2962003, 0.52382773, 0.520858, -0.60545796, 6.7463746, 2.9173675, -0.47235394
441, 475702223, 0.29498273, 0.5247232, 0.51287854, -0.6120531, 8.657428, 3.478595, -1.7943115
442, 475718890, 0.294828, 0.527926, 0.5026651, -0.61781937, 10.952582, 3.6693134, -3.2381363
443, 475735557, 0.29676637, 0.53504163, 0.4908429, -0.6202708, 15.006518, 3.566037, -5.2966337
444, 475752224, 0.29952517, 0.5496116, 0.47451422, -0.6189106, 16.97016, 0.43615916, -5.7489758
445, 475768891, 0.30166215, 0.56857294, 0.45243785, -0.617274, 9.872547, -4.20001, -4.688919
446, 475785558, 0.31100583, 0.5827298, 0.43269128, -0.61358136, 3.6383517, -4.265156, -3.4299822
447, 475802225, 0.32861823, 0.58899796, 0.42382592, -0.6045374, 0.789649, 1.3655293, 1.526824
448, 475818892, 0.34514254, 0.59973717, 0.42253813, -0.5853685, 2.0250435, 7.5962873, 7.6079826
449, 475835559, 0.3587376, 0.6159172, 0.4198769, -0.56183547, 0.7185226, 4.700582, 7.45743
450, 475852226, 0.3724657, 0.62865216, 0.4175216, -0.5401333, -2.6754534, 4.212397, 4.51066
451, 475868893, 0.3821102, 0.64204174, 0.41407818, -0.51991934, -3.361849, 2.826362, 4.134675
452, 475885560, 0.3873598, 0.6578223, 0.40835455, -0.50047106, -2.3157673, 0.2991636, 3.3262959
453, 475902227, 0.39104727, 0.67361426, 0.40211505, -0.4812814, -4.5365176, -1.5083604, 2.5520935
454, 475918894, 0.39216685, 0.6873079, 0.39903322, -0.46323657, -7.0237327, -2.3245068, 0.6898756
455, 475935561, 0.3893441, 0.69990087, 0.40296748, -0.44291028, -6.5971613, -1.4926491, 0.047582626
456, 475952228, 0.3893778, 0.707648, 0.41299835, -0.4207777, -6.411946, -4.0121317, 0.15939236
457, 475968895, 0.3999141, 0.7066593, 0.4281995, -0.39667213, -6.4167957, -5.2647476, -1.5357685
458, 475985562, 0.41479936, 0.7005435, 0.44324273, -0.37512463, -7.70339, -3.1674373, -3.00101
459, 476002229, 0.42263758, 0.6973035, 0.45139658, -0.36247602, -8.06819, 1.3873137, -4.1921034
460, 476018896, 0.42057908, 0.6994846, 0.4539712, -0.35741746, -8.053307, 1.5959536, -5.7075047
461, 476035563, 0.41318524, 0.7038798, 0.45273635, -0.35897562, -7.420108, -0.2742561, -5.7512445
462, 476052230, 0.40639105, 0.70798635, 0.4486027, -0.36381263, -5.789858, -0.98609376, -5.715309
463, 476068897, 0.3972531, 0.71446073, 0.44104788, -0.37042564, -3.9764252, -1.0510033, -4.6514015
464, 476085564, 0.3836187, 0.7241758, 0.4304853, -0.37827367, -1.9830629, -1.3064905, -3.2980165
465, 476102231, 0.37031826, 0.7334366, 0.42059246, -0.38475913, -0.3137306, -0.77898425, -0.84465885
466, 476118898, 0.36442897, 0.73799986, 0.41697806, -0.38558993, 3.5413184, -1.1724828, 1.9411421
467, 476135565, 0.366076, 0.73697054, 0.42025572, -0.38242722, 5.7295713, -2.844879, 2.2897635
468, 476152232, 0.36920056, 0.734921, 0.4223703, -0.38103542, 7.5022607, -2.945122, 3.2045288
469, 476168899, 0.37695432, 0.7308629, 0.42397025, -0.37946898, 7.2690644, -2.7800887, 4.0829773
470, 476185566, 0.38468134, 0.72665685, 0.42794353, -0.37530908, 5.799712, 0.53581285, 4.52561
471, 476202233, 0.39028147, 0.72314847, 0.4334866, -0.36990345, 5.1846895, 2.152602, 4.3567743
472, 476218900, 0.39815164, 0.71875495, 0.4399737, -0.36234242, 3.0381815, 0.61359894, 2.6113434
473, 476235567, 0.4101344, 0.71226907, 0.4459887, -0.3543432, -1.0387596, -0.68311346, 0.71154976
474, 476252234, 0.42379364, 0.70346946, 0.45050278, -0.35011345, -5.8029428, -2.2839494, -1.9580936
475, 476268901, 0.4356192, 0.69202685, 0.45589733, -0.35141844, -10.611485, -5.171517, -0.5876093
476, 476285568, 0.4448921, 0.6782745, 0.46766743, -0.3511474, -12.724543, -1.7527242, 8.659683
477, 476302235, 0.45268977, 0.6688909, 0.47287887, -0.35220006, 6.7701726, -1.2965097, 3.6129303
478, 476318902, 0.46013927, 0.6606564, 0.47626466, -0.35352415, 6.360915, -1.4826468, -1.3263216
479, 476335569, 0.46632013, 0.64770895, 0.48735297, -0.3542712, -5.3312445, -0.5563438, -3.631318
480, 476352236, 0.46726486, 0.63580704, 0.5014452, -0.35492027, -9.194679, 0.340935, 0.42471695
481, 476368903, 0.47012913, 0.6251941, 0.51016456, -0.3575548, -9.919865, 1.9672756, -0.54404926
482, 476385570, 0.46746275, 0.6173336, 0.51757026, -0.364007, -7.582281, 2.2729971, -3.2338715
483, 476402237, 0.45733017, 0.61361855, 0.5230677, -0.37513217, -3.6359468, -0.3695742, -1.4616604
484, 476418904, 0.4455993, 0.6112971, 0.5269838, -0.38736004, -2.3115864, -0.897189, 0.2805519
485, 476435571, 0.43517548, 0.60858077, 0.5308721, -0.39803112, -1.1447097, 0.7204198, 1.5995607
486, 476452238, 0.42643756, 0.605198, 0.533048, -0.40957138, 0.17481038, -0.91632134, 0.7583084
487, 476468905, 0.41777351, 0.6008932, 0.5345331, -0.42269316, -1.3328205, -1.9776202, -0.1309433
488, 476485572, 0.40836087, 0.59573126, 0.5367838, -0.43613195, -1.066452, -0.33480632, -0.417531
489, 476502239, 0.39890024, 0.58984154, 0.539694, -0.44910842, -1.0505923, 0.850951, -0.009364128
490, 476518906, 0.38946906, 0.58373, 0.5422056, -0.46215641, -0.8325202, 0.69606024, -0.21578598
491, 476535573, 0.3810584, 0.57726187, 0.5438928, -0.4751277, 0.020465406, 0.42978615, -0.740572
492, 476552240, 0.37340963, 0.57050544, 0.54549646, -0.4873652, 0.6643396, 0.81696355, -0.73446083
493, 476568907, 0.36620733, 0.5635452, 0.5478214, -0.49820006, 0.93915933, 0.9415718, -0.38555908
494, 476585574, 0.35864434, 0.5569985, 0.55035305, -0.50817406, 1.4352181, 1.033094, -0.6478863
495, 476602241, 0.35091516, 0.55126923, 0.5519327, -0.5180093, 2.0555112, 0.6338713, -1.2041016
496, 476618908, 0.34380454, 0.5459291, 0.5530215, -0.5271903, 2.1889787, 0.08470426, -1.6451521
497, 476635575, 0.3370475, 0.54130024, 0.5536818, -0.53556705, 1.6553084, 0.45106167, -0.99640465
498, 476652242, 0.3306735, 0.5378503, 0.5527642, -0.5438994, 1.7782044, 0.8458488, -0.23775959
499, 476668909, 0.3238111, 0.5355534, 0.5504267, -0.55259573, 1.6857415, 1.6896619, 0.25456142
500, 476685576, 0.3164495, 0.5346638, 0.5460558, -0.5619787, 2.4874063, 1.1754079, 0.75207233
501, 476702243, 0.3105409, 0.5339695, 0.54031515, -0.57140446, 3.1988082, 0.33072764, 0.9367466
502, 476718910, 0.30649376, 0.5327249, 0.53521824, -0.57949084, 4.1531916, 0.72063595, 0.5499172
503, 476735577, 0.303389, 0.53104687, 0.53074247, -0.5867359, 4.3048463, 0.5812877, 0.70788765
504, 476752244, 0.30113196, 0.528841, 0.52719814, -0.5930525, 4.140102, 1.083184, 0.8847637
505, 476768911, 0.29964802, 0.52659726, 0.52358776, -0.5989698, 4.1541214, 1.5741056, 0.9308176
506, 476785578, 0.2987847, 0.52489495, 0.5190912, -0.60478073, 4.620761, 2.5035517, 0.42786407
507, 476802245, 0.29852656, 0.5242403, 0.5126899, -0.6109056, 6.560228, 3.0677366, -0.4954958
508, 476818912, 0.29920867, 0.52479106, 0.50576645, -0.61585, 8.6208105, 4.0388827, -1.8957648
509, 476835579, 0.30198202, 0.5295732, 0.49788007, -0.6168281, 13.395344, 3.6903744, -4.1253176
510, 476852246, 0.30609444, 0.5401099, 0.4858368, -0.6152663, 14.640013, 0.675947, -4.6662655
511, 476868913, 0.3106567, 0.5558243, 0.46819338, -0.61265767, 10.439641, -1.8659203, -4.308489
512, 476885580, 0.31825143, 0.57141215, 0.4497969, -0.6081853, 4.9310713, -1.9902999, -3.3344417
513, 476902247, 0.33080798, 0.58121526, 0.43835023, -0.60050523, 1.3635744, 1.7792609, 0.90143204
514, 476918914, 0.34271798, 0.59441596, 0.4318763, -0.58540523, 1.5924646, 6.2783656, 6.28273
515, 476935581, 0.3518252, 0.6133024, 0.426553, -0.56403404, 1.2035009, 2.647644, 6.7241917
516, 476952248, 0.3627296, 0.62755436, 0.42265278, -0.54403114, -1.2412546, 1.3079486, 4.836973
517, 476968915, 0.37186357, 0.64092124, 0.41835433, -0.52528036, -2.5267568, 0.88625705, 4.5734615
518, 476985582, 0.37741566, 0.6558234, 0.41316724, -0.5067035, -2.3955023, -0.6012463, 3.4261875
519, 477002249, 0.38090506, 0.6715701, 0.40803793, -0.48724985, -3.8973727, -1.8566968, 2.696456
520, 477018916, 0.38468623, 0.6840322, 0.40530527, -0.46887803, -6.14891, -2.8001614, 1.2112255
521, 477035583, 0.38687283, 0.69422907, 0.4085777, -0.4488229, -6.0177655, -1.203174, -0.13813305
522, 477052250, 0.38958862, 0.7012918, 0.41796306, -0.42628598, -5.982384, -2.4652433, -0.17339611
523, 477068917, 0.3991322, 0.70163274, 0.43191954, -0.40230933, -6.420883, -3.5974333, -1.6581907
524, 477085584, 0.41030517, 0.6984382, 0.4449288, -0.38193497, -7.5014024, -1.4165648, -3.3853054
525, 477102251, 0.41729245, 0.69614017, 0.4510464, -0.37123498, -8.818904, 0.9767004, -5.017822
526, 477118918, 0.41750112, 0.6981532, 0.45131415, -0.36686897, -7.7715983, 2.042987, -5.94147
527, 477135585, 0.41173035, 0.703183, 0.44905743, -0.36655408, -6.837385, 1.0916872, -5.359424
528, 477152252, 0.4047892, 0.7087316, 0.44318983, -0.3707162, -5.120293, -0.28104305, -4.786177
529, 477168919, 0.39603183, 0.715834, 0.43451515, -0.37674856, -3.3720396, -1.3032991, -4.075819
530, 477185586, 0.38302362, 0.7254812, 0.42494845, -0.38261107, -1.9630135, -1.8367562, -2.7680063
531, 477202253, 0.37144044, 0.7336134, 0.41779426, -0.38638553, -1.160713, 0.28010097, -1.289774
532, 477218920, 0.36473808, 0.73702276, 0.41664296, -0.3875238, 0.899052, -0.90247935, 0.15621376
533, 477235587, 0.36644053, 0.7349219, 0.4210966, -0.38508603, 5.1148095, -4.4230185, 1.8042707
534, 477252254, 0.37057537, 0.731506, 0.42671105, -0.38143557, 7.407071, -1.6762309, 2.918148
535, 477268921, 0.37309173, 0.72886336, 0.43061477, -0.37965012, 6.202175, -0.49682593, 3.881298
536, 477285588, 0.37644446, 0.7262807, 0.43359664, -0.37789214, 5.792506, -0.056412436, 3.7507353
537, 477302255, 0.3808024, 0.72419316, 0.43752244, -0.37297517, 5.718277, 0.34412545, 3.6842928
538, 477318922, 0.38993, 0.7197385, 0.4437647, -0.36470085, 3.3257453, -0.2877081, 2.657754
539, 477335589, 0.40287134, 0.71235514, 0.4511131, -0.3560115, -0.7282439, -1.1141433, 0.7278528
540, 477352256, 0.4173695, 0.7016222, 0.45794326, -0.3518801, -5.693445, -3.426403, -1.518053
541, 477368923, 0.42965293, 0.68956655, 0.46748313, -0.3483658, -9.056783, -4.3439727, 9.582169
542, 477385590, 0.44615108, 0.67717445, 0.4753852, -0.34116852, 2.348481, -2.414668, 6.290985
543, 477402257, 0.45426765, 0.6709677, 0.47826052, -0.33869284, 6.254484, -2.4138367, -1.8745422
544, 477418924, 0.46237254, 0.66054624, 0.4834309, -0.3408629, -7.7556787, -2.342929, -5.3979907
545, 477435591, 0.46486792, 0.6502048, 0.49474025, -0.34112522, -14.876523, 1.5515087, -2.9964643
546, 477452258, 0.46581137, 0.64283556, 0.5009309, -0.34475088, -15.651201, 3.30765, -1.0574093
547, 477468925, 0.45668647, 0.64114946, 0.50432545, -0.35499784, -6.221019, 2.01782, -1.046071
548, 477485592, 0.445623, 0.6387661, 0.50853217, -0.36714542, -3.099803, -0.33434007, 2.1973505
549, 477502259, 0.43410534, 0.63649046, 0.51151633, -0.3805079, -0.5105221, -3.8576028, 1.7270737
550, 477518926, 0.42819533, 0.63124007, 0.51403207, -0.39237544, 0.28179643, -2.242016, 0.34162998
551, 477535593, 0.4240078, 0.6250643, 0.51648957, -0.4034268, -0.80426633, 1.4964832, 0.7853956
552, 477552260, 0.41780257, 0.61928785, 0.5195806, -0.4146833, -1.4667506, 2.3858442, 0.049214363
553, 477568927, 0.40968707, 0.6134507, 0.5232428, -0.42667866, -1.8609443, 1.5090363, -1.4284544
554, 477585594, 0.39992633, 0.60794246, 0.5267902, -0.43927184, -1.070645, 1.5782142, -1.3190279
555, 477602261, 0.38940936, 0.6030384, 0.52968764, -0.45181704, -0.38504767, 1.4070367, -0.7236891
556, 477618928, 0.37974814, 0.5974977, 0.5319014, -0.46461955, -0.32631594, -0.9728589, -0.25207615
557, 477635595, 0.3724414, 0.5897436, 0.5350459, -0.4766742, -0.65598327, -1.6225697, -0.02560997
558, 477652262, 0.3658437, 0.58084553, 0.5393366, -0.48774529, -0.068779856, -0.28880176, -0.2619629
559, 477668929, 0.35883668, 0.5718423, 0.5442595, -0.49801296, 1.5453337, 0.3040259, -0.30966854
560, 477685596, 0.35114834, 0.56355476, 0.54848796, -0.50819725, 1.8977455, 0.1746718, -0.95499325
561, 477702263, 0.34407708, 0.5563303, 0.55090183, -0.5182833, 2.1922612, 0.1999538, -1.4740982
562, 477718930, 0.3378242, 0.5501665, 0.55245334, -0.52724725, 2.1644228, 0.9132867, -1.4204922
563, 477735597, 0.33200404, 0.54514784, 0.5528683, -0.535655, 2.3506536, 1.1296016, -0.5782585
564, 477752264, 0.3254597, 0.54166275, 0.5515235, -0.5445199, 1.7574717, 1.5974524, 0.06169319
565, 477768931, 0.31758824, 0.5396901, 0.5485066, -0.55408955, 1.5062612, 1.3899415, 1.0918503
566, 477785598, 0.30989075, 0.53853774, 0.5435559, -0.5643529, 2.540319, 0.32520464, 1.238697
567, 477802265, 0.30446875, 0.53682643, 0.538129, -0.57405216, 3.399153, 0.06462274, 0.3709278
568, 477818932, 0.3009984, 0.5344728, 0.53360933, -0.58223915, 4.0887284, 0.2070215, 0.29498482
569, 477835599, 0.2988625, 0.53157437, 0.530279, -0.5889965, 4.7609, 0.33501977, 0.514719
570, 477852266, 0.29745463, 0.52846926, 0.5276842, -0.59480494, 3.9920673, 1.2797583, 1.2440596
571, 477868933, 0.29655945, 0.5258266, 0.5241903, -0.60065466, 4.1000295, 2.4190378, 1.1755571
572, 477885600, 0.2959121, 0.52456105, 0.5186046, -0.60689664, 5.7268624, 3.062076, -0.17062187
573, 477902267, 0.29583028, 0.5249176, 0.51064724, -0.61334157, 8.160316, 3.3255367, -1.5365381
574, 477918934, 0.29722437, 0.5275619, 0.50192416, -0.6175847, 11.366664, 4.3013754, -3.2508311
575, 477935601, 0.30128363, 0.53560615, 0.49139118, -0.61716413, 16.109684, 3.20157, -5.3744636
576, 477952268, 0.30534413, 0.5506891, 0.47501722, -0.6147095, 15.162801, -0.71239614, -5.7148185
577, 477968935, 0.3104433, 0.56957066, 0.45335644, -0.6112979, 9.17524, -4.539196, -4.201107
578, 477985602, 0.3218355, 0.58223534, 0.43575856, -0.60625154, 3.285507, -2.6748333, -0.4810686
579, 478002269, 0.3356884, 0.5888101, 0.42747808, -0.59823155, -2.9329402, 6.4634695, 5.911351
580, 478018936, 0.34227443, 0.60902345, 0.42315805, -0.5769563, -0.5050531, 9.69708, 7.6776295
581, 478035603, 0.34934658, 0.6261605, 0.4182282, -0.557645, 0.35985428, 0.95061713, 4.855695
582, 478052270, 0.35789022, 0.6385343, 0.41567945, -0.5398164, -2.2561486, 1.0292637, 4.223318
583, 478068937, 0.36332375, 0.65161324, 0.41187572, -0.52321786, -2.7713943, -1.4929733, 4.244931
584, 478085604, 0.36878005, 0.66424364, 0.41058055, -0.50419044, -2.1322556, -2.457529, 3.13274
585, 478102271, 0.37548247, 0.67531735, 0.41507798, -0.48028368, -3.7316887, -1.5577818, 2.0358248
586, 478118938, 0.3860388, 0.6811939, 0.4247795, -0.4544383, -5.6725087, -4.558215, 1.2939501
587, 478135605, 0.40149495, 0.6808627, 0.44018784, -0.42598712, -5.794753, -4.1075373, -0.049423218
588, 478152272, 0.41442394, 0.6800637, 0.45362273, -0.39999408, -6.15853, -0.7698727, -2.104196
589, 478168939, 0.41940597, 0.68242776, 0.45694926, -0.38677022, -8.12045, 2.1781363, -3.793777
590, 478185606, 0.41919842, 0.6878843, 0.45346996, -0.3813864, -8.240117, 1.6931854, -5.400148
591, 478202273, 0.4179027, 0.69409156, 0.44871336, -0.37716454, -7.805535, 0.14363708, -4.9089427
592, 478218940, 0.4127384, 0.7014171, 0.44207007, -0.37714437, -7.7787704, 0.20925272, -4.235472
593, 478235607, 0.40545726, 0.7088481, 0.4351423, -0.37919998, -6.7690196, -0.30639893, -4.874677
594, 478252274, 0.39612824, 0.7162619, 0.42805097, -0.38317916, -5.078298, -1.5093783, -4.763343
595, 478268941, 0.38390288, 0.72476065, 0.41982183, -0.3887067, -2.32668, -3.0411878, -4.4607105
596, 478285608, 0.36974669, 0.73433894, 0.4117462, -0.3930666, -1.2840238, -2.6108057, -3.2124949
597, 478302275, 0.35960385, 0.7408397, 0.40590885, -0.39633602, 1.0362251, -2.4806156, 0.5344553
598, 478318942, 0.35957685, 0.7408742, 0.40707785, -0.39509544, 3.8236523, 0.26207474, 1.8685875
599, 478335609, 0.35747316, 0.7412569, 0.41038898, -0.3928544, 6.6807237, 0.73448277, 2.50004
600, 478352276, 0.36146826, 0.73962444, 0.41127557, -0.39134532, 9.093471, -3.4729934, 4.0429
601, 478368943, 0.36805093, 0.73816997, 0.41184407, -0.3873378, 8.164103, -2.5611863, 4.566085
602, 478385610, 0.3753978, 0.7352673, 0.41559795, -0.38175812, 5.105187, -0.45469552, 4.092535
603, 478402277, 0.38650915, 0.7295149, 0.42343232, -0.37299654, 2.755496, 0.72313815, 3.4343414
604, 478418944, 0.40096387, 0.7210122, 0.43272957, -0.36347932, -1.0789776, -0.28307647, 1.3687057
605, 478435611, 0.41620913, 0.71016294, 0.44088224, -0.35786077, -4.828422, -1.7281126, -1.1359177
606, 478452278, 0.42974284, 0.69724685, 0.44815066, -0.3582338, -8.738863, -5.6323156, 1.6722994
607, 478468945, 0.4431845, 0.68151593, 0.46204007, -0.35446438, -9.285439, -1.0040506, 10.748117
608, 478485612, 0.45684883, 0.66978467, 0.47028333, -0.34858847, 8.420658, 0.26378372, 3.1518736
609, 478502279, 0.4653981, 0.6618287, 0.47467804, -0.3465125, 4.5428467, -0.36857376, -1.7208385
610, 478518946, 0.47093287, 0.6517076, 0.4839484, -0.3453927, -7.8205485, -0.9413881, -5.0215344
611, 478535613, 0.47360402, 0.64084065, 0.4973714, -0.34299698, -12.029102, 0.20738135, -2.617703
612, 478552280, 0.47220027, 0.63326234, 0.5062323, -0.3460309, -12.228796, 2.177493, -1.1724682
613, 478568947, 0.46574202, 0.627924, 0.5130503, -0.3543694, -8.062838, 1.6934502, -1.6353731
614, 478585614, 0.45554808, 0.6248215, 0.5180285, -0.3656819, -2.8710105, -1.693949, 0.8372946
615, 478602281, 0.44597098, 0.6224606, 0.52065164, -0.37759414, 0.41364604, -2.7937102, 0.055412292
616, 478618948, 0.43961504, 0.61809134, 0.523609, -0.38799256, -0.16990225, 0.24180749, -0.11619377
617, 478635615, 0.433322, 0.61370516, 0.52611285, -0.39850444, -1.2593135, 2.1367328, 1.0112009
618, 478652282, 0.42527032, 0.6096528, 0.5282774, -0.41035864, -2.7935412, 0.90849054, 0.10883522
619, 478668949, 0.41452417, 0.6059753, 0.53029, -0.42397985, -2.2688143, -0.50307757, -0.55756474
620, 478685616, 0.4036202, 0.6014217, 0.53253055, -0.43794608, -1.192377, -0.33115724, -0.12021446
621, 478702283, 0.39338857, 0.5963122, 0.53474534, -0.45133942, -0.5480826, 0.16746865, 0.07120228
622, 478718950, 0.38368365, 0.59092194, 0.53644615, -0.46457127, -0.009747176, 0.046486, -0.04573536
623, 478735617, 0.37500322, 0.58467036, 0.53778845, -0.4778278, 0.37532988, -0.6050223, -0.11392403
624, 478752284, 0.36740023, 0.5773935, 0.53947264, -0.49051574, 0.44655252, -0.18593462, -0.08154392
625, 478768951, 0.35912326, 0.5702548, 0.54231423, -0.5017349, 0.7407199, 1.4349785, -0.35818672
626, 478785618, 0.3501949, 0.5640277, 0.54473937, -0.5123457, 1.3438681, 1.1480609, -0.7524576
627, 478802285, 0.34198883, 0.5577888, 0.54577583, -0.5234949, 1.5046083, 0.4150146, -1.5009165
628, 478818952, 0.3346938, 0.55218464, 0.5461081, -0.5337048, 2.4048479, 0.902609, -1.7686806
629, 478835619, 0.32906902, 0.5469291, 0.5462038, -0.5424448, 2.6384673, 0.9510385, -1.0895433
630, 478852286, 0.32323006, 0.5429772, 0.5454006, -0.5506714, 2.656811, 1.9228784, -0.4963131
631, 478868953, 0.31627408, 0.5408275, 0.5428017, -0.5593258, 2.4742827, 1.913877, -0.2530737
632, 478885620, 0.30941162, 0.54002255, 0.53791213, -0.5685887, 3.4545999, 0.66896063, 0.15697479
633, 478902287, 0.30459428, 0.539031, 0.5325939, -0.577074, 3.8238351, 0.21239094, 0.25102997
634, 478918954, 0.30179986, 0.5374624, 0.5287484, -0.5835057, 4.2390475, -0.13039924, 0.58743477
635, 478935621, 0.30047852, 0.535656, 0.5257613, -0.5885262, 4.7719193, 0.64700407, 0.46871376
636, 478952288, 0.30040795, 0.5339715, 0.52273196, -0.5927762, 4.9810843, 2.0161967, 0.51383114
637, 478968955, 0.30085143, 0.53333086, 0.5181755, -0.5971129, 6.183257, 2.487185, 0.54628944
638, 478985622, 0.3024142, 0.53370017, 0.51137984, -0.60183305, 8.37009, 2.9405994, -0.6890106
639, 479002289, 0.30509865, 0.536241, 0.5032027, -0.6051035, 11.31571, 4.183595, -2.372364
640, 479018956, 0.30858335, 0.5447822, 0.49145105, -0.60536534, 15.886675, 3.615641, -4.1988306
641, 479035623, 0.31071994, 0.5614948, 0.4722795, -0.604261, 15.934412, -0.7381788, -4.855004
642, 479052290, 0.31433466, 0.58208597, 0.44646692, -0.60252774, 9.4575, -5.9566283, -3.920054
643, 479068957, 0.32531923, 0.59562904, 0.42344138, -0.60007805, 2.4416583, -4.215748, -0.66454124
644, 479085624, 0.33799648, 0.602177, 0.41222653, -0.59431756, -4.2529616, 5.1873145, 5.6543074
645, 479102291, 0.34407654, 0.62134796, 0.40862748, -0.5732056, -1.6559559, 14.061705, 7.112509
646, 479118958, 0.35006952, 0.641659, 0.40148395, -0.55185, 1.2622465, 3.650059, 5.748085
647, 479135625, 0.35740325, 0.6562399, 0.39653087, -0.53327113, -2.321195, 1.2680603, 4.973461
648, 479152292, 0.36234742, 0.67059547, 0.39274684, -0.51454705, -2.630165, 0.27040395, 4.448286
649, 479168959, 0.36629945, 0.68494254, 0.38849834, -0.49573228, -3.0959435, -1.8568788, 3.3338957
650, 479185626, 0.3705442, 0.69634265, 0.3876062, -0.47704098, -5.5751047, -2.8131201, 1.4944286
651, 479202293, 0.37129882, 0.7066776, 0.3932569, -0.456175, -6.1040215, -2.7448668, 0.39127636
652, 479218960, 0.3745727, 0.7120228, 0.40673983, -0.43276346, -6.084172, -5.3166666, 0.1371355
653, 479235627, 0.38912654, 0.7085099, 0.42678842, -0.40552253, -4.822152, -4.7605586, -1.4784069
654, 479252294, 0.40730453, 0.6998885, 0.44696844, -0.38010627, -6.831954, -2.448613, -3.4190416
655, 479268961, 0.41758543, 0.6935128, 0.45714384, -0.36835396, -8.524762, 1.9058965, -4.828455
656, 479285628, 0.41801253, 0.69370306, 0.4589664, -0.36523175, -8.492787, 2.3536446, -6.6108084
657, 479302295, 0.4124222, 0.6978968, 0.45786896, -0.3649751, -7.6088843, 1.3001119, -5.72613
658, 479318962, 0.40364572, 0.7045882, 0.45198682, -0.36923772, -5.977664, 0.8782492, -5.0128746
659, 479335629, 0.39166874, 0.7141675, 0.44162938, -0.3762004, -4.386938, -0.12013087, -4.450735
660, 479352296, 0.37656057, 0.72577035, 0.42918095, -0.3837526, -2.522827, -2.0474546, -3.020348
661, 479368963, 0.36271158, 0.7363373, 0.4179457, -0.38932237, -0.78264505, -1.9669982, -1.3737144
662, 479385630, 0.3539974, 0.7427091, 0.41202235, -0.39154756, 1.9729875, -1.9300563, 0.7820225
663, 479402297, 0.35488144, 0.74251574, 0.41385996, -0.38916883, 5.1429453, -3.2078397, 1.473237
664, 479418964, 0.36027023, 0.73926413, 0.41868976, -0.38522172, 6.8633513, -2.6502056, 1.966609
665, 479435631, 0.36642605, 0.7353167, 0.4216769, -0.38370904, 6.199019, -2.2928402, 3.282134
666, 479452298, 0.3732637, 0.7307296, 0.42451164, -0.3827548, 4.5791, -1.712955, 3.9268122
667, 479468965, 0.38035214, 0.7264464, 0.42828822, -0.3797107, 4.2957478, 0.09514589, 4.1569624
668, 479485632, 0.3900253, 0.7208951, 0.4336754, -0.37432474, 3.4054983, 1.0639682, 3.8565912
669, 479502299, 0.4018975, 0.71377623, 0.44036135, -0.36754143, 0.72333777, 0.8321819, 1.8888206
670, 479518966, 0.4146333, 0.7054202, 0.44644237, -0.3621514, -3.023798, -0.3414136, -0.2996006
671, 479535633, 0.42695922, 0.69510937, 0.45118368, -0.36189064, -8.38183, -3.8905094, 4.511935
672, 479552300, 0.4390197, 0.68373144, 0.4601498, -0.35782385, -5.228592, -1.4422623, 8.010136
673, 479568967, 0.45074984, 0.67424935, 0.46676108, -0.35263208, 5.8978667, -2.4646292, 1.376812
674, 479585634, 0.4580052, 0.66666394, 0.47051147, -0.3527211, 0.33737895, -3.2827177, -4.698614
675, 479602301, 0.46087942, 0.6590877, 0.47703162, -0.35445344, -8.21713, 0.18763745, -3.9153953
676, 479618968, 0.46193582, 0.65090734, 0.48562557, -0.35651878, -11.577354, 1.9156746, -1.3729286
677, 479635635, 0.46302345, 0.64207, 0.49301204, -0.3609673, -12.186248, 3.919153, -1.3355789
678, 479652302, 0.4563141, 0.636248, 0.50017285, -0.36985955, -5.0029693, -0.65554273, -0.95133877
679, 479668969, 0.4465296, 0.6321109, 0.5061325, -0.38063094, -1.3218603, -1.5877752, 1.2015352
680, 479685636, 0.43672314, 0.62835234, 0.51098907, -0.3915856, -1.4816104, -0.7760303, 1.1682224
681, 479702303, 0.42856303, 0.62365687, 0.5149231, -0.40279406, -1.3912022, 0.57441866, 0.19946003
682, 479718970, 0.4209057, 0.61878586, 0.5175345, -0.41485348, -1.527896, -0.10691273, 0.5335398
683, 479735637, 0.41295102, 0.6129545, 0.5200441, -0.42815334, -2.1198294, -0.67848474, 0.19072437
684, 479752304, 0.40416044, 0.6062, 0.52327245, -0.44200116, -1.4193343, 0.34054142, -0.14703846
685, 479768971, 0.39463136, 0.5989564, 0.5275062, -0.45525548, -1.0224578, 1.6679618, -0.20609665
686, 479785638, 0.38404217, 0.5923667, 0.5307516, -0.46895492, -0.31297794, 1.4155517, -0.32169437
687, 479802305, 0.37364668, 0.5861292, 0.5320781, -0.48346296, 0.67947334, -0.04346947, -0.41622734
688, 479818972, 0.3650501, 0.5788247, 0.53335065, -0.49723274, 0.8255766, -0.15973644, -0.61413956
689, 479835639, 0.3574504, 0.57102233, 0.53601414, -0.50877726, 0.9925258, 0.64154255, -0.79219913
690, 479852306, 0.3500109, 0.56377554, 0.53888226, -0.51890117, 1.7954173, 1.1135263, -1.2942286
691, 479868973, 0.34277362, 0.5571844, 0.5410767, -0.52847975, 2.0815363, 0.74604577, -1.7121019
692, 479885640, 0.33591813, 0.5510013, 0.54302865, -0.5372891, 1.6209675, 0.8885559, -1.6264668
693, 479902307, 0.3292368, 0.5454616, 0.5443954, -0.5456292, 0.93872136, 1.263905, -1.7335434
694, 479918974, 0.32242158, 0.5410053, 0.5441999, -0.5542625, 0.7218741, 1.1460658, -1.0529003
695, 479935641, 0.31566322, 0.5375158, 0.5419298, -0.5636916, 1.681753, 0.7284991, 0.5676813
696, 479952308, 0.3084766, 0.53477234, 0.5384071, -0.57356894, 2.1679187, 0.110169314, 1.5797195
697, 479968975, 0.30185422, 0.5324125, 0.5334843, -0.58379644, 3.11544, 0.080426216, 1.4591722
698, 479985642, 0.29816014, 0.5304036, 0.52848834, -0.5920097, 5.334749, 1.08454, -0.0023651123
699, 480002309, 0.29641575, 0.5290993, 0.52355903, -0.5983982, 6.5468645, 1.3262618, -0.2509327
700, 480018976, 0.29553184, 0.5284932, 0.518783, -0.60350895, 6.6130624, 1.7086025, 0.45296192
701, 480035643, 0.29528594, 0.5286393, 0.513612, -0.60790837, 6.461228, 2.2210248, 0.4337902
702, 480052310, 0.2956992, 0.5298591, 0.5068402, -0.61231303, 7.593744, 2.5955832, -0.18505669
703, 480068977, 0.29725817, 0.5325735, 0.49760985, -0.6167578, 9.5178, 2.7532616, -1.4813023
704, 480085644, 0.3003642, 0.53703785, 0.4868283, -0.619978, 12.061626, 3.7788925, -2.8018532
705, 480102311, 0.30454654, 0.5477093, 0.47326067, -0.61910665, 15.81639, 1.9246883, -4.9127183
706, 480118978, 0.31022176, 0.56379676, 0.4540258, -0.6162459, 12.991215, -3.693979, -3.98215
707, 480135645, 0.3196034, 0.58023196, 0.43119195, -0.6125853, 6.4160137, -5.4955373, -2.977262
708, 480152312, 0.33241042, 0.5916358, 0.41349617, -0.6070371, 1.3919095, -0.024655044, 0.79120255
709, 480168979, 0.34221244, 0.6023659, 0.4066351, -0.5955643, -1.6893141, 11.267222, 6.509716
710, 480185646, 0.3493824, 0.62332344, 0.40166473, -0.5727722, 1.6208874, 9.156011, 7.0691376
711, 480202313, 0.3608013, 0.63896835, 0.39668977, -0.5515269, -2.3437023, 1.6316917, 4.7345886
712, 480218980, 0.37243783, 0.6515238, 0.39178947, -0.5322694, -3.9124637, 1.1213974, 4.408513
713, 480235647, 0.38142627, 0.6652339, 0.38670644, -0.51228786, -2.554512, -0.33031327, 3.6100826
714, 480252314, 0.388993, 0.67889124, 0.38277188, -0.49120224, -3.9256773, -1.5858376, 2.8130398
715, 480268981, 0.39539805, 0.6893496, 0.3829892, -0.47093502, -6.3405623, -2.0827878, 1.1890554
716, 480285648, 0.39549354, 0.70020086, 0.38985023, -0.4486904, -6.0549226, -0.67036396, -0.14164448
717, 480302315, 0.3935774, 0.7089408, 0.40128562, -0.42599586, -6.539999, -2.7602382, 0.46521854
718, 480318982, 0.39867887, 0.7105154, 0.415053, -0.40491608, -6.510985, -3.9036467, -1.0338545
719, 480335649, 0.407559, 0.7074605, 0.42725605, -0.3883948, -7.9000278, -2.2935193, -3.3774676
720, 480352316, 0.41304308, 0.7048153, 0.43659025, -0.37685922, -8.723017, -0.0395172, -5.4003468
721, 480368983, 0.41542158, 0.70272535, 0.44348127, -0.37003964, -8.251976, -0.23394486, -6.236874
722, 480385650, 0.41199985, 0.7034989, 0.44649404, -0.3687702, -6.7579255, 0.71263427, -6.0945725
723, 480402317, 0.40663135, 0.70561135, 0.447063, -0.3700015, -5.720332, 0.3801452, -6.0086317
724, 480418984, 0.39965114, 0.70965695, 0.44394904, -0.37360182, -4.036233, 0.45200694, -4.791265
725, 480435651, 0.3885797, 0.7168947, 0.43756667, -0.3789538, -2.2789438, 0.007054516, -3.6990843
726, 480452318, 0.37627655, 0.7247475, 0.43134564, -0.3835373, -1.2709817, 0.3325683, -1.7296534
727, 480468985, 0.36484644, 0.73161626, 0.42616394, -0.38731393, 3.0075083, -1.7949675, 0.85495186
728, 480485652, 0.36271682, 0.7336888, 0.42374486, -0.38804692, 7.964487, -6.1194363, 2.3716402
729, 480502319, 0.36894703, 0.73092556, 0.4257299, -0.3852048, 9.284943, -5.3121653, 2.4845314
730, 480518986, 0.37655085, 0.7269377, 0.4295816, -0.38109538, 8.426363, -2.0678751, 4.532139
731, 480535653, 0.38382834, 0.7235379, 0.4339688, -0.37529033, 7.9785624, 1.0574358, 6.7764244
732, 480552320, 0.39174038, 0.72070503, 0.4379009, -0.36792624, 5.626761, 2.046282, 5.171795
733, 480568987, 0.40196228, 0.7167317, 0.44300362, -0.35843104, 1.0010629, 0.8779828, 2.7632275
734, 480585654, 0.41382185, 0.71114874, 0.44776264, -0.35004413, -3.2327676, -1.1646067, 1.0119915
735, 480602321, 0.42618695, 0.703319, 0.45078358, -0.34713715, -7.1804385, -2.1326933, -0.91272545
736, 480618988, 0.43589947, 0.69291717, 0.4553547, -0.35001796, -12.197491, -4.998016, 1.8070107
737, 480635655, 0.44414452, 0.68058634, 0.46592203, -0.34993932, -10.375607, -1.6242447, 6.550432
738, 480652322, 0.4513417, 0.6729093, 0.46947137, -0.35083234, 8.870336, -1.7012943, 1.8947964
739, 480668989, 0.45895588, 0.6649429, 0.47345102, -0.35079587, 6.208318, -0.85185796, -1.2554083
740, 480685656, 0.46411744, 0.65402746, 0.4844686, -0.3494801, -4.1667337, 0.091459826, -2.368967
741, 480702323, 0.46612614, 0.6430031, 0.49596646, -0.35113204, -11.856282, -0.8179523, -1.6957474
742, 480718990, 0.46917492, 0.6321402, 0.50390387, -0.35546777, -15.719663, 3.0557992, -1.1834946
743, 480735657, 0.46092808, 0.62686497, 0.51138496, -0.36479354, -6.608271, 1.989053, -3.1399598
744, 480752324, 0.44860807, 0.62453735, 0.5164746, -0.3767771, -2.1934676, -0.8657631, 1.0964355
745, 480768991, 0.4375088, 0.6218962, 0.51981914, -0.38938725, -1.1787038, 0.017796772, 1.889286
746, 480785658, 0.4290852, 0.6181145, 0.5226027, -0.4008864, 0.14760035, 0.9786897, 0.16545677
747, 480802325, 0.42178285, 0.6133579, 0.5248468, -0.41283217, -1.308249, -2.1598186, -0.09312916
748, 480818992, 0.4143655, 0.6069351, 0.52776736, -0.42590564, -1.6588548, -1.9203581, 0.33006382
749, 480835659, 0.4051124, 0.60032153, 0.5317337, -0.43904492, -0.7563044, 1.4051743, -0.13078403
750, 480852326, 0.39476717, 0.5932294, 0.536375, -0.45226386, -1.2053715, 1.8048935, -0.22889996
751, 480868993, 0.3838336, 0.58654475, 0.53954196, -0.46640593, -0.38176003, -0.08799884, -0.52925014
752, 480885660, 0.3751074, 0.5791635, 0.54161763, -0.48012224, 1.1733892, -0.9065319, -0.45121193
753, 480902327, 0.36738092, 0.57152325, 0.54412764, -0.4922608, 1.4092875, 0.37975568, -0.34211445
754, 480918994, 0.35911718, 0.5643164, 0.54666096, -0.5037329, 1.2838076, 0.8685861, -0.8184786
755, 480935661, 0.35038188, 0.5579236, 0.54794145, -0.51547736, 1.648827, 0.94254273, -1.1096525
756, 480952328, 0.34268937, 0.55237937, 0.5486029, -0.5258126, 3.3597283, 1.5742586, -1.7756901
757, 480968995, 0.3357054, 0.5483823, 0.5482174, -0.5348266, 3.1824603, 0.8719066, -2.0919738
758, 480985662, 0.3295075, 0.54483354, 0.5471551, -0.5433284, 1.9767396, 0.83180344, -1.1202374
759, 481002329, 0.32269678, 0.5420894, 0.5458187, -0.55144465, 1.5426258, 1.6227493, -0.31981277
760, 481018996, 0.31512976, 0.54051095, 0.54277116, -0.56030697, 2.2555897, 1.0125848, 0.5255356
761, 481035663, 0.30903047, 0.5391857, 0.5377911, -0.56970406, 3.2039979, -0.1903899, 0.65161324
762, 481052330, 0.3050013, 0.53748167, 0.53326184, -0.5776874, 3.4610574, 0.23622034, 0.44451714
763, 481068997, 0.3025806, 0.5356076, 0.52934664, -0.58426416, 4.265548, 0.3291282, 0.30194664
764, 481085664, 0.3011231, 0.53364205, 0.52585536, -0.58994085, 4.639038, 1.1242849, 0.38533974
765, 481102331, 0.29999405, 0.53175336, 0.52231246, -0.5953444, 4.513153, 1.9812495, 0.8884306
766, 481118998, 0.29931659, 0.53046775, 0.51763767, -0.6008892, 5.0352426, 2.2286677, 0.80418396
767, 481135665, 0.2989422, 0.5304026, 0.5107258, -0.6070163, 7.0475407, 2.8170822, 0.29552364
768, 481152332, 0.29974607, 0.531429, 0.5024436, -0.61260825, 9.521556, 3.914876, -1.4930544
769, 481168999, 0.30269, 0.5365685, 0.4931325, -0.6142446, 13.632271, 3.2490683, -3.9407163
770, 481185666, 0.30732572, 0.5474546, 0.47902164, -0.61350304, 15.013783, 0.045656096, -4.328607
771, 481202333, 0.3131254, 0.5641317, 0.45885044, -0.61087424, 11.741474, -2.8883982, -4.1863885
772, 481219000, 0.32306987, 0.5807405, 0.43844506, -0.6050911, 6.2580204, -2.9455261, -2.7342582
773, 481235667, 0.33580694, 0.5906728, 0.42451683, -0.59843785, 0.3983811, 2.505696, 2.9223433
774, 481252334, 0.34433162, 0.6053855, 0.41921353, -0.5824149, -0.09406688, 11.232962, 6.3054066
775, 481269001, 0.35155302, 0.6255223, 0.4138832, -0.5602106, 0.7687908, 3.5165794, 6.8079376
776, 481285668, 0.36033562, 0.6407858, 0.4083679, -0.5411014, -2.5600047, 0.23635153, 5.002409
777, 481302335, 0.36770487, 0.655137, 0.40397108, -0.52191854, -3.4026299, 0.27593076, 4.4135246
778, 481319002, 0.37243566, 0.67076564, 0.39896402, -0.50219095, -2.6902704, -1.1945089, 3.0119467
779, 481335669, 0.375794, 0.6857194, 0.39533725, -0.48195383, -4.6638856, -2.3878999, 2.3197842
780, 481352336, 0.38029438, 0.6956879, 0.39495933, -0.46411714, -6.7904778, -2.9332438, 0.9939146
781, 481369003, 0.3831596, 0.70375043, 0.39947635, -0.4453602, -5.5613003, -0.89907885, -0.4524374
782, 481385670, 0.38573167, 0.7097972, 0.410408, -0.4230454, -5.969035, -2.4531343, -0.5729618
783, 481402337, 0.39463818, 0.70943, 0.42456263, -0.4008987, -6.785229, -2.9403005, -1.9249487
784, 481419004, 0.4042963, 0.70610034, 0.43726218, -0.3831083, -7.678818, -0.6892176, -3.6287389
785, 481435671, 0.40988997, 0.70377946, 0.4433526, -0.3743345, -8.805502, 0.7441589, -5.390736
786, 481452338, 0.4117837, 0.70398676, 0.4450699, -0.36980125, -7.6594396, 0.8839346, -6.498143
787, 481469005, 0.40775076, 0.7070686, 0.44515166, -0.36828843, -7.115617, 0.7396637, -5.5556645
788, 481485672, 0.40116856, 0.71099216, 0.44116658, -0.3727316, -6.11761, -0.05293013, -4.733823
789, 481502339, 0.3904323, 0.7179948, 0.43252626, -0.38074958, -4.0336785, -0.93068415, -4.1761627
790, 481519006, 0.37434313, 0.7286287, 0.42169032, -0.3887772, -2.2359552, -2.1554666, -3.271863
791, 481535673, 0.36012134, 0.73809886, 0.41209424, -0.39459333, -0.31671327, -1.353231, -1.1204033
792, 481552340, 0.3563614, 0.74050283, 0.41100153, -0.39464286, 2.3446245, -0.49898955, 0.98357487
793, 481569007, 0.3586021, 0.73846775, 0.4157553, -0.39143375, 5.4578395, -1.731229, 1.7018137
794, 481585674, 0.3625041, 0.73549813, 0.42006266, -0.38882348, 9.090672, -3.206929, 3.7529058
795, 481602341, 0.36853606, 0.7320368, 0.4229748, -0.38652134, 8.453048, -1.7265397, 4.146185
796, 481619008, 0.37231052, 0.7299066, 0.4261184, -0.38346717, 5.7476926, 0.3370933, 4.3022156
797, 481635675, 0.37799436, 0.7266862, 0.43148404, -0.3779841, 5.2661395, 1.4231048, 4.424204
798, 481652342, 0.38901278, 0.7209534, 0.43917212, -0.368817, 2.5706377, 0.26044044, 2.3779297
799, 481669009, 0.40465203, 0.7122992, 0.44706094, -0.35920176, -2.257933, -1.8386924, 0.17850018
800, 481685676, 0.42137295, 0.7001913, 0.45356944, -0.35560432, -7.4740677, -4.1384172, -1.8590302
801, 481702343, 0.43306035, 0.68673694, 0.46505466, -0.35295627, -12.436851, -2.937605, 9.571247
802, 481719010, 0.44484913, 0.6749747, 0.47318333, -0.35016984, 1.560339, -2.1031353, 4.779272
803, 481735677, 0.45512846, 0.6670103, 0.4756784, -0.34883866, 9.159565, -1.5479425, -0.5839138
804, 481752344, 0.46289852, 0.65667194, 0.48183957, -0.3497722, -5.0091224, -0.82671505, -4.293809
805, 481769011, 0.4615609, 0.6487469, 0.4925431, -0.35141647, -13.10446, -0.831842, -2.320218
806, 481785678, 0.46355954, 0.6395539, 0.49952307, -0.35575718, -16.637487, 4.871734, 0.016627312
807, 481802345, 0.45739695, 0.63393134, 0.50646937, -0.36388323, -7.6200566, 3.8143756, -2.7362142
808, 481819012, 0.44740212, 0.62980264, 0.5119229, -0.3756567, -1.7016358, -1.9202247, 0.6840372
809, 481835679, 0.43754485, 0.6263478, 0.5152651, -0.38826263, -0.13449714, -2.5582423, 0.91654396
810, 481852346, 0.4312338, 0.6209311, 0.519381, -0.3984073, -0.63877255, 0.00861933, 0.43592834
811, 481869013, 0.42646706, 0.61467385, 0.5235602, -0.4076635, -0.81922597, 0.6030594, 0.2994032
812, 481885680, 0.41945866, 0.6090205, 0.5268746, -0.4189925, -1.3611121, -0.17560363, 0.65098953
813, 481902347, 0.40854847, 0.60449, 0.52942586, -0.43288726, -2.0306687, 0.5807791, -0.47756767
814, 481919014, 0.39630502, 0.59992325, 0.5321571, -0.44704157, -2.0594954, 0.38835523, -0.08039951
815, 481935681, 0.3845159, 0.59505445, 0.53351647, -0.46197492, -0.92457294, -0.4895991, 0.30706882
816, 481952348, 0.37449235, 0.5897735, 0.5339123, -0.4763019, 0.9873218, -0.9333262, -0.16808605
817, 481969015, 0.3660897, 0.5834199, 0.53486454, -0.48941004, 1.0051736, 0.03350973, -0.18239117
818, 481985682, 0.3576375, 0.57673347, 0.53642666, -0.5017204, 0.18639047, 1.0102324, -0.042272568
819, 482002349, 0.34905192, 0.5701295, 0.5379132, -0.5135829, 0.4686329, 1.1848948, -0.025466919
820, 482019016, 0.3400221, 0.5639561, 0.5385824, -0.5256144, 1.2968825, 1.4481331, -0.38032246
821, 482035683, 0.33107075, 0.558167, 0.5389698, -0.5369883, 1.905565, 1.2215768, -1.3240042
822, 482052350, 0.323053, 0.5527849, 0.53883564, -0.5474711, 2.0292566, 0.062993325, -2.1300282
823, 482069017, 0.3161379, 0.5475335, 0.5381775, -0.55734354, 1.764661, -0.06320924, -1.4880476
824, 482085684, 0.30967674, 0.5426569, 0.5369638, -0.56683046, 2.0142891, 1.2485505, -0.052829742
825, 482102351, 0.30323535, 0.53894365, 0.5344416, -0.57616276, 3.2310243, 1.3978342, 0.086800575
826, 482119018, 0.29729274, 0.5363219, 0.53041863, -0.5853503, 3.9153051, 1.0812441, -0.23931217
827, 482135685, 0.29196036, 0.534478, 0.5258241, -0.5938051, 4.0666623, 1.0770117, 0.04188156
828, 482152352, 0.28860232, 0.53285784, 0.5211427, -0.6009862, 4.735933, 0.6239773, -0.16695786
829, 482169019, 0.28710994, 0.5314188, 0.51677066, -0.6067232, 5.372989, 0.87963074, -0.14051342
830, 482185686, 0.2863052, 0.53051406, 0.5120359, -0.61188763, 5.390124, 1.2256335, 0.22091007
831, 482202353, 0.28623956, 0.53005344, 0.506921, -0.61655855, 5.426067, 1.6777501, 0.1826191
832, 482219020, 0.28696206, 0.5303707, 0.50044936, -0.6212191, 7.1432905, 2.1335156, -0.26152515
833, 482235687, 0.2889464, 0.53184104, 0.4921812, -0.6256323, 9.256346, 2.798426, -1.9588242
834, 482252354, 0.29186478, 0.53533345, 0.48243687, -0.6288805, 11.324048, 3.6179948, -3.3763409
835, 482269021, 0.29599473, 0.5446489, 0.47016624, -0.6282447, 15.659721, 2.7985587, -5.149623
836, 482285688, 0.30033267, 0.56031746, 0.45165038, -0.6259869, 12.256589, -3.638361, -4.283933
837, 482302355, 0.30871952, 0.57593244, 0.4300344, -0.6229506, 5.4921346, -5.5683193, -2.548626
838, 482319022, 0.3216683, 0.58632493, 0.41428465, -0.6173522, 1.7615279, 1.1831342, 0.38424015
839, 482335689, 0.33305308, 0.59671605, 0.4097079, -0.60427487, 1.3080263, 10.83466, 4.7096777
840, 482352356, 0.34298933, 0.6146862, 0.40701586, -0.5821171, 2.9260044, 7.0437202, 7.1636944
841, 482369023, 0.3556338, 0.6281591, 0.40450302, -0.5615345, -1.8757484, 0.7124268, 5.845644
842, 482385690, 0.36802673, 0.64043945, 0.4016845, -0.5413375, -3.9837017, 0.5493647, 5.736923
843, 482402357, 0.37759075, 0.6542271, 0.39654684, -0.52169484, -2.7543614, -0.37095284, 4.809515
844, 482419024, 0.3825065, 0.670053, 0.39120963, -0.50167286, -3.7821379, -1.8694619, 3.9537868
845, 482435691, 0.38554168, 0.6831182, 0.39141113, -0.48115215, -6.410524, -2.326152, 1.737958
846, 482452358, 0.38624582, 0.6938005, 0.39728045, -0.4600288, -6.044475, -1.4431137, 0.49620533
847, 482469025, 0.38398182, 0.7039877, 0.4055104, -0.43877485, -5.4565787, -1.0042081, 0.4146099
848, 482485692, 0.38522312, 0.71015364, 0.41565624, -0.4177531, -5.7569036, -2.587409, -1.1521282
849, 482502359, 0.39428756, 0.71007854, 0.4274329, -0.3970263, -6.884112, -3.4521866, -3.587944
850, 482519026, 0.40434787, 0.7074352, 0.43577546, -0.38228384, -8.068237, 0.092864156, -4.531908
851, 482535693, 0.40806836, 0.7079587, 0.43845278, -0.37421474, -7.800276, 2.6037252, -5.438702
852, 482552360, 0.40592802, 0.7112034, 0.43990865, -0.36864004, -6.7364945, 0.5673302, -5.597265
853, 482569027, 0.40043363, 0.7154413, 0.43894687, -0.36759415, -5.5275583, -0.55547494, -4.91603
854, 482585694, 0.39396626, 0.71977675, 0.43551335, -0.37019324, -5.002366, -1.1858976, -4.9993696
855, 482602361, 0.38497573, 0.72533166, 0.42935103, -0.375963, -3.9828095, -1.8523661, -3.9401689
856, 482619028, 0.3721955, 0.73286957, 0.42081538, -0.38378376, -2.2865617, -2.354405, -2.57126
857, 482635695, 0.36302385, 0.7378507, 0.41596645, -0.38828447, -0.38805482, 0.13294931, -0.4614601
858, 482652362, 0.3620087, 0.73715544, 0.41882026, -0.38748416, 1.7998174, 1.3084397, -0.086624146
859, 482669029, 0.36225426, 0.73578995, 0.42270547, -0.38562712, 4.9247494, -1.1816844, 1.2427254
860, 482685696, 0.36430675, 0.7343372, 0.42277747, -0.38638288, 6.919533, -3.6918058, 3.3657303
861, 482702363, 0.36956757, 0.73174316, 0.4224915, -0.38662088, 7.88913, -2.589316, 4.5034475
862, 482719030, 0.37321448, 0.73002625, 0.42449743, -0.38415796, 6.806529, 0.99972385, 4.6856422
863, 482735697, 0.37766072, 0.7283642, 0.42848873, -0.37849486, 6.388289, 1.4906803, 4.550704
864, 482752364, 0.38707012, 0.72417885, 0.43480375, -0.3697165, 3.1532762, -0.323404, 2.6216545
865, 482769031, 0.40095732, 0.71657115, 0.44166678, -0.3615138, -1.6870836, -1.7286985, 0.14854908
866, 482785698, 0.4163837, 0.70506, 0.4485377, -0.3582344, -6.3357077, -2.5687084, -1.7476654
867, 482802365, 0.42888334, 0.6912323, 0.45961562, -0.35638937, -10.907344, -4.0985394, 8.388685
868, 482819032, 0.44469365, 0.6771913, 0.4682262, -0.35274136, -1.2107236, -3.051828, 6.3448944
869, 482835699, 0.4541315, 0.6711739, 0.46921268, -0.35090244, 9.289449, -2.3417163, -1.3858852
870, 482852366, 0.4617125, 0.66126335, 0.47458467, -0.35259706, -5.672053, -2.9441257, -5.3988776
871, 482869033, 0.46076715, 0.6517792, 0.48693934, -0.35464135, -15.15216, 1.3593769, -2.9543467
872, 482885700, 0.46022844, 0.64313567, 0.49422768, -0.36098197, -17.037315, 3.3899531, 0.8082714
873, 482902367, 0.45210323, 0.6393142, 0.49984068, -0.3701921, -7.100373, 3.4060633, -1.5599174
874, 482919034, 0.4386553, 0.63802356, 0.50467455, -0.38185623, 0.49273968, -0.84099185, 1.795083
875, 482935701, 0.42648563, 0.63554674, 0.5075499, -0.39571002, -0.8994206, -3.2352471, 0.8042307
876, 482952368, 0.41863126, 0.63080066, 0.5099837, -0.40836024, -0.91161656, -1.6623523, 0.40203285
877, 482969035, 0.41332623, 0.62496316, 0.5124836, -0.41945907, -0.59457386, 1.6785991, 1.1723595
878, 482985702, 0.4049802, 0.61918795, 0.51550925, -0.4322619, -1.835199, 1.453277, 0.4322939
879, 483002369, 0.39392418, 0.6131428, 0.51879615, -0.4469149, -2.2942407, 0.9894416, -0.6195116
880, 483019036, 0.38232282, 0.6067347, 0.521881, -0.4618931, -1.4915783, 0.9435284, -0.09125805
881, 483035703, 0.37076905, 0.60031563, 0.5238277, -0.47724074, 0.024575697, 0.65879303, -0.37740612
882, 483052370, 0.3611684, 0.5925835, 0.5257284, -0.49194974, 0.7527885, -0.3834034, -0.3373747
883, 483069037, 0.35279432, 0.584156, 0.5280759, -0.50540745, 0.8788623, -0.02052296, -0.29031658
884, 483085704, 0.34465152, 0.5755732, 0.5310102, -0.51765025, 1.6356211, 1.06759, -0.8315296
885, 483102371, 0.33647203, 0.5674006, 0.53406525, -0.52879137, 3.1246362, 1.4380392, -1.2528248
886, 483119038, 0.3291603, 0.5596607, 0.5368332, -0.53874516, 3.51676, 1.1949314, -1.9158998
887, 483135705, 0.32271782, 0.5529577, 0.5392458, -0.5470901, 3.253668, 0.97942704, -2.2924085
888, 483152372, 0.31691423, 0.54755783, 0.5404312, -0.5546916, 3.1247256, 0.793572, -2.0096602
889, 483169039, 0.3116277, 0.5429303, 0.54095453, -0.56168115, 2.5798872, 0.77458704, -0.6561022
890, 483185706, 0.30624, 0.53887445, 0.5404757, -0.568964, 2.0120256, 0.81343204, 0.95393467
891, 483202373, 0.3001365, 0.53557926, 0.5381473, -0.57747155, 1.4104646, 0.32803297, 1.7467146
892, 483219040, 0.294625, 0.53295076, 0.53423214, -0.5863092, 2.6818287, 0.51433325, 1.4482574
893, 483235707, 0.2909743, 0.53061, 0.52920055, -0.5947576, 4.3523507, 0.2958744, 0.34832382
894, 483252374, 0.28907368, 0.5280007, 0.5248674, -0.6018046, 4.8316507, 0.7139598, -0.053762436
895, 483269041, 0.28784, 0.5255932, 0.52088207, -0.60793465, 5.0677443, 1.0917578, 0.09976578
896, 483285708, 0.28703877, 0.52383953, 0.5166216, -0.61343765, 4.8756623, 1.973838, 0.39765358
897, 483302375, 0.28672588, 0.52337694, 0.51092315, -0.6187287, 6.184944, 2.3267565, -0.0031881332
898, 483319042, 0.2871266, 0.52490956, 0.50254726, -0.6240813, 8.168361, 2.8217163, -1.5947752
899, 483335709, 0.28908128, 0.5280629, 0.49164972, -0.62917805, 10.075031, 3.4174218, -2.8689957
900, 483352376, 0.29311597, 0.5355385, 0.47978306, -0.63015294, 14.612759, 3.3815386, -5.3462305
901, 483369043, 0.29779422, 0.5499512, 0.46262243, -0.6283754, 13.931671, -2.2560794, -5.585245
902, 483385710, 0.30515584, 0.5660522, 0.4416392, -0.6256378, 7.775423, -4.8780313, -4.537103
903, 483402377, 0.3177685, 0.5768147, 0.4252505, -0.6208646, 3.8501873, -0.54704463, -1.8757348
904, 483419044, 0.33197275, 0.5836976, 0.41934907, -0.6109341, 1.941697, 8.004307, 4.34077
905, 483435711, 0.34286082, 0.6003751, 0.4176809, -0.58952653, 2.3093128, 9.19977, 6.9596825
906, 483452378, 0.3545859, 0.6146415, 0.4166001, -0.5682709, -0.6131764, 1.8972723, 5.649905
907, 483469045, 0.3657753, 0.62673414, 0.41608074, -0.54798955, -2.945972, 1.3759147, 5.3939095
908, 483485712, 0.37363708, 0.64087766, 0.41350335, -0.52791023, -2.5697432, 0.49100858, 4.619604
909, 483502379, 0.37907422, 0.65555483, 0.41103783, -0.5075444, -3.5093477, -1.2266622, 3.9567661
910, 483519046, 0.38101614, 0.6696883, 0.41215122, -0.48629057, -5.37838, -1.5789344, 2.5611734
911, 483535713, 0.37878907, 0.68317354, 0.4178617, -0.46388298, -5.517748, -1.4884171, 1.8124218
912, 483552380, 0.37813222, 0.69306886, 0.4260844, -0.44173133, -5.6124215, -2.990928, 1.2318926
913, 483569047, 0.38366294, 0.6973365, 0.4360172, -0.42001963, -6.2067847, -3.5737767, -0.8595724
914, 483585714, 0.39391515, 0.6971793, 0.44643056, -0.39934254, -7.0886536, -2.516, -2.8943896
915, 483602381, 0.4012182, 0.69718736, 0.4533316, -0.3839884, -7.8148174, -0.1261578, -3.7431202
916, 483619048, 0.40346017, 0.69944084, 0.4553631, -0.37503287, -7.292299, 0.38878167, -4.397181
917, 483635715, 0.403471, 0.7028646, 0.4546442, -0.36945105, -6.4629917, -0.43994853, -4.7622538
918, 483652382, 0.40347102, 0.70601815, 0.4524418, -0.36612663, -6.0264263, -1.035232, -4.712111
919, 483669049, 0.4025912, 0.70940703, 0.44762608, -0.36646378, -5.552154, -0.9999802, -4.755405
920, 483685716, 0.39705616, 0.71501595, 0.44064507, -0.37004507, -4.3610926, -1.4009517, -4.1841927
921, 483702383, 0.3859856, 0.72326106, 0.43200243, -0.37587976, -2.0087435, -1.5268401, -2.6754045
922, 483719050, 0.37683764, 0.7296402, 0.42635092, -0.37927085, -0.6906003, -1.0667976, -2.1748333
923, 483735717, 0.373271, 0.73140895, 0.4258525, -0.37995034, 0.9920826, -2.0529711, -0.815259
924, 483752384, 0.3743188, 0.7306514, 0.42669177, -0.37943506, 3.3080027, -2.0763886, 0.82032204
925, 483769051, 0.37639096, 0.73005563, 0.4265411, -0.3787006, 3.6081603, -1.1375602, 2.951271
926, 483785718, 0.38018402, 0.7285116, 0.42645344, -0.3779832, 3.5560791, -1.5148774, 3.8875246
927, 483802385, 0.38483763, 0.7265406, 0.42724958, -0.37616408, 4.1905346, 0.18845451, 4.285367
928, 483819052, 0.39015394, 0.724032, 0.4293404, -0.37313175, 5.1460934, 0.7478462, 4.234086
929, 483835719, 0.39782274, 0.71949536, 0.4334312, -0.36905813, 3.4348977, -0.6099521, 2.6102324
930, 483852386, 0.40996468, 0.7111041, 0.43958265, -0.36473233, -0.41849425, -1.5213878, 0.5730839
931, 483869053, 0.42416227, 0.6990054, 0.44712153, -0.3627161, -5.441291, -2.1486135, -2.201089
932, 483885720, 0.43618023, 0.6850618, 0.45707372, -0.36266184, -11.57894, -4.4666533, 6.8612385
933, 483902387, 0.44677478, 0.67297095, 0.46610984, -0.3608972, -3.6519043, -0.5316312, 5.589616
934, 483919054, 0.45207438, 0.66984767, 0.4661771, -0.3600203, 10.909122, 0.72353154, 0.73126507
935, 483935721, 0.4552744, 0.66605604, 0.4673241, -0.3615325, 0.8375828, -2.550853, -2.4801288
936, 483952388, 0.45782036, 0.6582252, 0.47605062, -0.36127377, -9.7751045, -0.19587636, -2.2708316
937, 483969055, 0.45934188, 0.64921427, 0.48407295, -0.36496875, -14.416702, 1.9090682, -0.7459898
938, 483985722, 0.45642594, 0.6427689, 0.49065116, -0.3711976, -8.174315, 3.7773447, -2.5708718
939, 484002389, 0.448305, 0.6381738, 0.49867138, -0.37826765, -1.4522849, 0.8459525, 0.19774628
940, 484019056, 0.43942344, 0.6345611, 0.504389, -0.3870837, -0.6959813, -2.1947587, 2.5674238
941, 484035723, 0.4307199, 0.6310283, 0.507877, -0.39792886, -1.4569147, -1.5969679, 0.73209476
942, 484052390, 0.4230217, 0.6272407, 0.51015425, -0.40910554, -1.5730749, 0.16981441, 0.63102245
943, 484069057, 0.41518545, 0.6233366, 0.5114622, -0.4212858, -1.9873055, 0.107724525, 0.5279856
944, 484085724, 0.40662816, 0.61879027, 0.51277673, -0.43452835, -1.4159291, -0.28531718, -0.42908
945, 484102391, 0.39664152, 0.61401165, 0.5147474, -0.44799906, -1.2238251, 1.3004571, -0.1868639
946, 484119058, 0.3853256, 0.60932, 0.5169031, -0.46159217, -1.0267926, 1.9064513, -0.26768875
947, 484135725, 0.37365082, 0.6045692, 0.5179835, -0.4760011, -0.14014374, 0.6430424, -0.6430197
948, 484152392, 0.3635567, 0.5986837, 0.51845115, -0.4905257, 0.86500406, -0.65408117, -0.40797424
949, 484169059, 0.35572731, 0.5909804, 0.52033305, -0.5034446, 1.5596719, -0.24068971, -0.10518074
950, 484185726, 0.3479914, 0.58261675, 0.5241239, -0.51454526, 1.4222486, 0.8494999, -0.37078667
951, 484202393, 0.33954713, 0.57437074, 0.52785844, -0.52552295, 1.7582902, 1.0282613, -0.71427727
952, 484219060, 0.33146796, 0.5665052, 0.53083587, -0.53611314, 2.2761908, 0.9923059, -1.3998594
953, 484235727, 0.3238926, 0.55964184, 0.5327466, -0.5459656, 2.4431736, 1.1865323, -2.1460671
954, 484252394, 0.31694105, 0.5539049, 0.53381735, -0.55477905, 2.3342452, 0.92194223, -1.5710058
955, 484269061, 0.31078985, 0.54949766, 0.53282684, -0.5635252, 2.5648835, 1.3725082, -1.1052723
956, 484285728, 0.3047807, 0.5467001, 0.5303477, -0.5718058, 3.1993957, 1.6651764, -1.0544834
957, 484302395, 0.2991964, 0.54505795, 0.5266258, -0.5797079, 3.9548633, 0.2312503, -0.55639267
958, 484319062, 0.29465145, 0.5430568, 0.5232207, -0.5869521, 3.0781949, -0.16517608, 0.46177673
959, 484335729, 0.29105097, 0.54044, 0.5203189, -0.59370446, 2.6521912, -0.22814034, 1.7982721
960, 484352396, 0.28895092, 0.5371345, 0.51752317, -0.6001387, 3.3410897, -0.22567634, 1.4063921
961, 484369063, 0.28849614, 0.5332977, 0.51457953, -0.60627913, 3.5669627, 0.5934508, 1.2556057
962, 484385730, 0.2888858, 0.52959955, 0.5111981, -0.6121673, 4.3503637, 1.778151, 0.96874523
963, 484402397, 0.28994206, 0.52691215, 0.5065584, -0.6178176, 6.241545, 2.5626256, -0.87019444
964, 484419064, 0.29210645, 0.5255446, 0.50055194, -0.6228381, 8.573474, 3.7404585, -2.0443063
965, 484435731, 0.29579967, 0.52784824, 0.49325994, -0.624961, 12.880124, 4.672572, -3.6908512
966, 484452398, 0.3014249, 0.5366245, 0.48229498, -0.62335515, 17.043425, 2.4437172, -4.9774823
967, 484469065, 0.30723622, 0.55148506, 0.4660913, -0.6198642, 13.902157, -0.9361851, -4.95625
968, 484485732, 0.31584835, 0.5671123, 0.44737205, -0.61521095, 7.024651, -3.7898066, -3.2107735
969, 484502399, 0.33100754, 0.57516295, 0.4359414, -0.6079306, 1.7590462, 0.033243082, 0.5463362
970, 484519066, 0.3462809, 0.5825058, 0.4337762, -0.5938161, -1.216982, 9.484302, 7.0475273
971, 484535733, 0.3554266, 0.60201454, 0.4291198, -0.571935, -0.52501696, 7.157871, 7.1403084
972, 484552400, 0.36389634, 0.61864877, 0.42450863, -0.55194986, -0.754145, 2.1359031, 4.5944242
973, 484569067, 0.37082168, 0.63365793, 0.4209473, -0.53270537, -2.4054787, 1.0806098, 4.7582855
974, 484585734, 0.3748151, 0.64931256, 0.41728345, -0.51359916, -2.657474, -0.3701605, 3.9715977
975, 484602401, 0.37798357, 0.66407603, 0.41494384, -0.49391896, -3.6111073, -1.9206071, 3.1193342
976, 484619068, 0.3828062, 0.6746004, 0.41623235, -0.4744756, -5.3286448, -3.1642363, 1.3641138
977, 484635735, 0.3886761, 0.68163097, 0.42316842, -0.4530359, -4.773721, -2.338095, 0.46923923
978, 484652402, 0.39436057, 0.68678486, 0.43580478, -0.42764884, -4.794678, -2.492152, 0.23848057
979, 484669069, 0.4045479, 0.68679494, 0.45192707, -0.40052286, -5.257327, -3.8446894, -1.3082876
980, 484685736, 0.41675556, 0.6831136, 0.46473214, -0.37907436, -6.398856, -3.136795, -3.3959508
981, 484702403, 0.42400122, 0.68117297, 0.4690928, -0.36902705, -8.0809765, 1.3904213, -5.4467072
982, 484719070, 0.42359996, 0.68340945, 0.47027606, -0.3638102, -8.885001, 1.5489318, -6.4204125
983, 484735737, 0.418696, 0.6880203, 0.46849993, -0.36308718, -7.204527, 0.20691198, -4.806947
984, 484752404, 0.4121335, 0.69411165, 0.4618406, -0.36750644, -5.6234035, 1.2086391, -4.3411736
985, 484769071, 0.40268287, 0.7025031, 0.45222652, -0.37393862, -4.467408, 0.24386074, -4.3715873
986, 484785738, 0.38923964, 0.7131618, 0.44055954, -0.38184127, -2.237063, -1.8600364, -3.5204568
987, 484802405, 0.37802452, 0.72223955, 0.430899, -0.38703534, -0.29854918, -2.4993525, -2.3439345
988, 484819072, 0.3726663, 0.72707695, 0.42619973, -0.3883756, 1.8561815, -2.394175, -0.36960602
989, 484835739, 0.37206754, 0.7277587, 0.4254034, -0.3885458, 4.0907464, -2.5967891, 2.0560827
990, 484852406, 0.37165144, 0.727267, 0.42621097, -0.38897938, 6.1553097, -0.28501657, 3.1420956
991, 484869073, 0.3731007, 0.7260093, 0.4264446, -0.3896851, 7.516001, -0.8781073, 3.338811
992, 484885740, 0.37876922, 0.7239989, 0.4276338, -0.38664153, 7.646989, -1.1278241, 4.493517
993, 484902407, 0.38626775, 0.7210554, 0.43090117, -0.38105574, 6.3115664, 0.34183848, 4.737561
994, 484919074, 0.39630732, 0.71572334, 0.43634012, -0.37455446, 2.9160366, 0.5308191, 2.6333933
995, 484935741, 0.41014665, 0.70746654, 0.44262004, -0.3679145, -2.3633637, -0.5192068, 0.012954712
996, 484952408, 0.42691892, 0.69533825, 0.44782907, -0.3656458, -9.692676, -6.1587343, 2.712057
997, 484969075, 0.4418562, 0.6808593, 0.46013382, -0.3598241, -11.859235, -1.0846547, 9.805641
998, 484985742, 0.45614564, 0.66952026, 0.46749505, -0.35373005, 6.864781, -0.5547037, 2.0878525
999, 485002409, 0.46612856, 0.6616285, 0.47122362, -0.35060397, 5.060052, -0.6919286, -3.3056831
1000, 485019076, 0.47053015, 0.6548782, 0.47569668, -0.35135627, -7.839443, -0.6569772, -4.343444
1001, 485035743, 0.46902528, 0.6485167, 0.48338637, -0.3546574, -15.777027, 1.7673156, -2.293974
1002, 485052410, 0.46794224, 0.64127296, 0.48893753, -0.36158258, -12.852621, 0.9748903, -0.32124043
1003, 485069077, 0.4613809, 0.635, 0.49587983, -0.37149543, -4.2774014, -0.13084728, -1.3491964
1004, 485085744, 0.45032105, 0.6315025, 0.50166786, -0.3830767, -0.3195015, -0.8652508, 2.062272
1005, 485102411, 0.43924302, 0.6285602, 0.50580984, -0.3951418, -0.9380213, -0.14434445, 1.9212875
1006, 485119078, 0.4319315, 0.62306684, 0.50978756, -0.40662298, -1.0118338, 0.24449769, 0.15585423
1007, 485135745, 0.42629844, 0.6156482, 0.51479024, -0.41742152, -1.8089149, -1.0437188, 0.2607546
1008, 485152412, 0.4176588, 0.6087193, 0.51981276, -0.42990643, -3.334537, 0.34575957, 0.09002972
1009, 485169079, 0.4061865, 0.60271895, 0.5240439, -0.4439859, -2.597873, 1.2374536, 0.047875404
1010, 485185746, 0.3946883, 0.59650385, 0.52699506, -0.4590026, -1.8167806, 0.14911532, 0.09487915
1011, 485202413, 0.38501865, 0.5891688, 0.52935004, -0.47374266, -0.32321268, -1.0854075, -0.15934849
1012, 485219080, 0.37679484, 0.5804453, 0.5320742, -0.4878613, 0.39087075, -0.3931611, -0.4680395
1013, 485235747, 0.3689586, 0.57097054, 0.5353401, -0.5012745, 0.5537053, 0.83740747, -0.6736288
1014, 485252414, 0.36107242, 0.56201816, 0.5383323, -0.51377386, 1.7067941, 1.1944696, -1.02635
1015, 485269081, 0.35373938, 0.5535403, 0.5411842, -0.5249611, 2.6313035, 1.5330175, -1.569253
1016, 485285748, 0.34674606, 0.5456935, 0.5436779, -0.5351662, 3.310234, 1.4106828, -1.9996948
1017, 485302415, 0.3403177, 0.5388137, 0.5456683, -0.54416233, 3.1044986, 0.9442774, -1.822825
1018, 485319082, 0.333823, 0.53344095, 0.54659927, -0.5524808, 2.662584, 1.2724077, -1.2563944
1019, 485335749, 0.32715526, 0.5294556, 0.546277, -0.5605626, 2.0870926, 0.97663873, -0.3554716
1020, 485352416, 0.32115963, 0.52643317, 0.54434943, -0.5686926, 2.8537104, 0.358724, 0.5767422
1021, 485369083, 0.31599057, 0.5236993, 0.54139054, -0.5768779, 2.7542343, 0.5205713, 0.9377432
1022, 485385750, 0.3118408, 0.5210229, 0.5379982, -0.5846805, 2.9684105, 0.6916206, 0.71746063
1023, 485402417, 0.30898726, 0.5184498, 0.5344951, -0.591654, 3.5588932, 0.8242854, 0.57656574
1024, 485419084, 0.3073517, 0.5155978, 0.5314015, -0.5977534, 4.0547395, 1.5346739, 0.9011116
1025, 485435751, 0.3063585, 0.5128379, 0.5279572, -0.6036604, 4.3809094, 2.0549123, 0.99283886
1026, 485452418, 0.30575496, 0.5107237, 0.5237646, -0.6093838, 4.5266666, 2.8573837, 0.54833794
1027, 485469085, 0.30540174, 0.5102724, 0.5174888, -0.6152723, 6.4909286, 3.4318378, -0.7288017
1028, 485485752, 0.30584157, 0.5122556, 0.5083608, -0.62098897, 8.752647, 4.0576687, -2.7125835
1029, 485502419, 0.30701074, 0.51735777, 0.4969914, -0.62537014, 11.365925, 4.624161, -4.0975904
1030, 485519086, 0.3101461, 0.52864844, 0.48328686, -0.6251216, 15.9988785, 3.709457, -6.1577797
1031, 485535753, 0.31187397, 0.5484126, 0.46311092, -0.62250245, 14.123855, -1.6666214, -5.5347714
1032, 485552420, 0.31649438, 0.5685862, 0.43945566, -0.6192112, 6.376258, -6.307322, -2.9534302
1033, 485569087, 0.3279977, 0.5800877, 0.42260328, -0.6142681, 0.66413933, -1.0312729, 1.3500986
1034, 485585754, 0.33959472, 0.59077615, 0.4171865, -0.601346, -0.5661346, 8.505029, 5.401456
1035, 485602421, 0.34948063, 0.60937506, 0.4155414, -0.5778004, 2.6631858, 6.727413, 7.9867973
1036, 485619088, 0.3614268, 0.62399673, 0.41224888, -0.5568236, -1.3058606, 1.4362717, 5.68219
1037, 485635755, 0.370318, 0.63854665, 0.4074054, -0.53772336, -3.7893953, 0.95381033, 4.219101
1038, 485652422, 0.37521923, 0.65469354, 0.40196103, -0.5186687, -2.24547, 0.36302146, 3.0389538
1039, 485669089, 0.37780303, 0.67121977, 0.39678496, -0.49929318, -2.5905983, -0.7241909, 2.541934
1040, 485685756, 0.37788498, 0.68657005, 0.3928657, -0.48112786, -5.1059246, -2.2580678, 1.9882164
1041, 485702423, 0.37793952, 0.697477, 0.39323324, -0.46482018, -6.540995, -3.6515357, 0.81825256
1042, 485719090, 0.378724, 0.70567226, 0.4012425, -0.44452447, -5.3880205, -2.2142396, 0.11303425
1043, 485735757, 0.3826759, 0.7102259, 0.41410384, -0.42149642, -5.751855, -3.8342035, 0.22887611
1044, 485752424, 0.3925016, 0.7092921, 0.42847636, -0.39907154, -6.1234617, -3.7015474, -1.4762478
1045, 485769091, 0.40356687, 0.70590454, 0.44034576, -0.38069806, -7.2181807, -2.1203544, -3.334949
1046, 485785758, 0.41130695, 0.70339555, 0.4459512, -0.37039384, -7.9779034, 0.63698643, -5.0077777
1047, 485802425, 0.41453668, 0.70259464, 0.44987103, -0.3635092, -8.292471, 0.78034204, -6.546504
1048, 485819092, 0.41086304, 0.7042473, 0.45247853, -0.3612386, -7.4333644, 0.4151363, -5.8668394
1049, 485835759, 0.40449864, 0.70695347, 0.4518039, -0.36396968, -5.254074, -0.09651985, -5.108713
1050, 485852426, 0.396645, 0.7108903, 0.44740015, -0.37032923, -3.6520095, -1.140875, -4.202195
1051, 485869093, 0.38154045, 0.71905065, 0.43863213, -0.38078606, -2.3340685, -2.2660415, -3.1801624
1052, 485885760, 0.3653334, 0.7275697, 0.42869067, -0.39166424, -0.67330974, -2.3295863, -0.9928417
1053, 485902427, 0.36010692, 0.73053926, 0.42495254, -0.39503607, 3.4563959, -0.94405836, 0.8833275
1054, 485919094, 0.36006272, 0.7304205, 0.4253579, -0.39485964, 6.106948, -0.25882846, 2.2410011
1055, 485935761, 0.3604278, 0.7298963, 0.42387903, -0.39708024, 8.971537, -1.8956183, 3.8769798
1056, 485952428, 0.36444098, 0.7290865, 0.42141107, -0.3975313, 13.193751, -2.6336906, 6.068815
1057, 485969095, 0.37143043, 0.7272255, 0.42321157, -0.39252743, 11.456651, 0.93597615, 6.2705345
1058, 485985762, 0.38127568, 0.7224365, 0.4294173, -0.38512135, 5.888644, 1.3047042, 3.6855984
1059, 486002429, 0.394212, 0.7154826, 0.43712768, -0.3763032, 0.5141212, -0.4549707, 1.6674185
1060, 486019096, 0.40999994, 0.7060813, 0.44371235, -0.36942074, -5.3616877, -1.6515043, -1.1411753
1061, 486035763, 0.4241899, 0.69465965, 0.45079073, -0.36647218, -13.819623, -5.990267, 4.1040087
1062, 486052430, 0.44030648, 0.67999595, 0.4634832, -0.35905743, -8.799464, -1.5294586, 6.1701975
1063, 486069097, 0.4563393, 0.6702614, 0.46810907, -0.35125652, 11.2308855, -0.5854059, 0.92087173
1064, 486085764, 0.46704495, 0.66125274, 0.4727054, -0.34809008, 1.0127429, -2.2136743, -3.9477272
1065, 486102431, 0.47148085, 0.6508076, 0.48314652, -0.34745932, -13.036626, 0.5725528, -4.621657
1066, 486119098, 0.47096512, 0.6419886, 0.49303165, -0.3506645, -18.841396, 3.1358473, -1.1434307
1067, 486135765, 0.46656755, 0.6364989, 0.49847877, -0.35875586, -11.662244, 4.553897, -1.7781057
1068, 486152432, 0.45419455, 0.6349995, 0.5039432, -0.36949593, -0.99937737, -1.0105394, 0.7277746
1069, 486169099, 0.44208568, 0.63380504, 0.50704795, -0.3817816, 1.4140236, -3.5612314, 3.2992802
1070, 486185766, 0.43269074, 0.6304161, 0.50889033, -0.3954592, -0.41153094, -1.765862, 0.48158932
1071, 486202433, 0.42728978, 0.62481976, 0.5116685, -0.40647516, -1.65268, 1.8150028, 0.21723557
1072, 486219100, 0.42097312, 0.61878633, 0.51546323, -0.41735587, -2.1516967, 0.3331722, 0.32420254
1073, 486235767, 0.41183066, 0.6125665, 0.5193026, -0.43068096, -1.7315439, -0.87743187, -0.31397438
1074, 486252434, 0.40113243, 0.6063736, 0.5229675, -0.4448728, -1.2610731, 0.63219666, -0.24817085
1075, 486269101, 0.39030254, 0.6000829, 0.526594, -0.45854828, -0.8988704, 0.75296474, -0.015451431
1076, 486285768, 0.38035086, 0.5933506, 0.5298012, -0.4717863, -0.053183343, -0.46629095, 0.12989521
1077, 486302435, 0.37247175, 0.58517426, 0.5330018, -0.48450834, 0.22925724, -0.57534045, -0.20701599
1078, 486319102, 0.3641011, 0.5771988, 0.5358183, -0.49716586, -0.034302756, 0.86954296, -0.27828598
1079, 486335769, 0.3545451, 0.5701104, 0.53838706, -0.5093273, 0.8679641, 1.3578975, -0.2670946
1080, 486352436, 0.3449413, 0.5636906, 0.5394298, -0.52181125, 1.7561194, 0.92621803, -1.0442057
1081, 486369103, 0.33673182, 0.5573886, 0.5403865, -0.5328369, 2.543356, 1.0498786, -2.1579823
1082, 486385770, 0.3297398, 0.5515223, 0.5409214, -0.54268026, 2.6363933, 0.51290834, -2.3821306
1083, 486402437, 0.3233566, 0.5461872, 0.54069644, -0.55206054, 2.1391973, 0.75461614, -1.2452507
1084, 486419104, 0.3165998, 0.5416944, 0.5398716, -0.5611356, 1.7116696, 0.983525, 0.6290331
1085, 486435771, 0.31009528, 0.53845125, 0.53694963, -0.570613, 2.9321306, 0.7855709, 0.883234
1086, 486452438, 0.30479118, 0.536143, 0.53278637, -0.57947797, 3.8247144, 0.529297, 0.32894516
1087, 486469105, 0.301641, 0.53386843, 0.52855307, -0.5870536, 4.461444, 0.2551208, 0.1044302
1088, 486485772, 0.30046892, 0.5313242, 0.52484614, -0.59325606, 4.6463447, 0.6794917, 0.05908966
1089, 486502439, 0.30004856, 0.5289516, 0.52118987, -0.59878665, 4.882596, 1.5234462, 0.6041508
1090, 486519106, 0.29968143, 0.5273727, 0.516423, -0.6044665, 5.485225, 2.4418397, 0.09227276
1091, 486535773, 0.29955888, 0.5273156, 0.50988287, -0.610103, 6.5739765, 2.606449, -0.87646294
1092, 486552440, 0.30012527, 0.52915037, 0.50049853, -0.6159781, 8.364779, 2.6509147, -1.6724024
1093, 486569107, 0.30174276, 0.53213453, 0.48907045, -0.6217695, 9.367675, 3.8654528, -2.4662995
1094, 486585774, 0.3037622, 0.5400362, 0.47572324, -0.6243238, 12.418175, 1.5926505, -4.296332
1095, 486602441, 0.3082981, 0.55237675, 0.4567285, -0.6254875, 11.454377, -3.7041214, -2.7073083
1096, 486619108, 0.31550944, 0.56797576, 0.43298307, -0.624809, 7.981677, -3.8493044, -2.1393747
1097, 486635775, 0.32551777, 0.58027434, 0.41496354, -0.6205873, 3.0839193, 1.4997382, -1.941308
1098, 486652442, 0.33562404, 0.5898901, 0.4078448, -0.61077976, 2.5127082, 9.563183, 2.649066
1099, 486669109, 0.34534347, 0.6068611, 0.40317932, -0.5915295, 4.9273787, 7.399385, 6.7388973
1100, 486685776, 0.35924327, 0.6199518, 0.39933446, -0.57196075, 0.24869996, 0.615725, 6.1954174
1101, 486702443, 0.374191, 0.6305136, 0.39707696, -0.55205685, -2.5437477, 1.294529, 4.788745
1102, 486719110, 0.3843682, 0.64415306, 0.39238298, -0.53232193, -2.551257, 0.25824285, 4.530197
1103, 486735777, 0.38866434, 0.66012657, 0.38774592, -0.51266867, -3.5194676, -1.0242374, 3.3160114
1104, 486752444, 0.38955095, 0.6751454, 0.38634968, -0.49311838, -5.5394306, -1.3456116, 2.1170883
1105, 486769111, 0.38763458, 0.68760604, 0.38793933, -0.47586098, -6.321486, -1.3347042, 0.7203722
1106, 486785778, 0.38266778, 0.6997838, 0.3935426, -0.45716017, -5.584703, -0.6404386, 0.044106483
1107, 486802445, 0.38022983, 0.70880646, 0.40155438, -0.43792242, -6.4123416, -2.5328555, -0.24227142
1108, 486819112, 0.3855816, 0.7114421, 0.41106394, -0.41976956, -6.8260427, -3.6935327, -2.3447304
1109, 486835779, 0.39611202, 0.7095823, 0.4227177, -0.40112484, -6.5994163, -2.3885005, -4.245416
1110, 486852446, 0.4058007, 0.7065044, 0.43184, -0.38690406, -7.040577, 0.34156886, -5.185073
1111, 486869113, 0.4090241, 0.7064088, 0.43608576, -0.37883803, -6.5870924, 2.7195303, -5.9555473
1112, 486885780, 0.40482843, 0.70978117, 0.43781742, -0.3750248, -6.7662735, 2.4439733, -5.9408712
1113, 486902447, 0.3959961, 0.71492517, 0.43622813, -0.376533, -5.831939, 0.8464967, -5.455755
1114, 486919114, 0.3865578, 0.7204292, 0.43206617, -0.3806268, -4.1150136, -0.77081263, -4.712869
1115, 486935781, 0.3746585, 0.7273127, 0.42491332, -0.38742647, -2.6986146, -1.9867347, -3.7464986
1116, 486952448, 0.3609629, 0.73434144, 0.4170532, -0.3956239, -1.8497056, -2.3906882, -1.6994295
1117, 486969115, 0.3527824, 0.7374425, 0.41375574, -0.40066496, 2.571301, -1.7742776, 1.1867352
1118, 486985782, 0.35349977, 0.735855, 0.4156886, -0.40095088, 6.4305525, -2.351865, 2.003106
1119, 487002449, 0.35509366, 0.7338183, 0.4178394, -0.4010395, 8.485391, -3.0164669, 3.1776361
1120, 487019116, 0.36228532, 0.7300192, 0.41963267, -0.39966628, 10.182843, -3.2275293, 4.925911
1121, 487035783, 0.37011626, 0.72652686, 0.42333058, -0.39492655, 8.181597, 1.0409285, 6.191231
1122, 487052450, 0.37669182, 0.7229989, 0.42909834, -0.38891324, 5.6355867, 1.5834838, 4.846076
1123, 487069117, 0.38707796, 0.71727383, 0.4375427, -0.37980092, 2.8048358, 0.55409175, 2.9283228
1124, 487085784, 0.4017512, 0.70843107, 0.44607905, -0.3711312, -2.6274636, -0.7982159, 0.6494808
1125, 487102451, 0.41746452, 0.6968514, 0.45258653, -0.36781812, -9.956978, -5.7682, 1.6959381
1126, 487119118, 0.42924348, 0.6847502, 0.4642587, -0.36240104, -11.817775, -2.7814043, 10.117813
1127, 487135785, 0.44577307, 0.67322236, 0.4717793, -0.35423964, 8.728635, -2.1358209, 1.8949738
1128, 487152452, 0.4611858, 0.66226244, 0.47736323, -0.34762618, 5.8185935, -1.3417896, -2.8301983
1129, 487169119, 0.4723177, 0.6493032, 0.486092, -0.3450206, -7.584974, -0.42678878, -5.340516
1130, 487185786, 0.47363654, 0.6389767, 0.4977805, -0.34582567, -16.19218, 3.7826228, -3.9336658
1131, 487202453, 0.4734703, 0.63017976, 0.5052785, -0.35127807, -14.981124, 2.9172437, -1.1708803
1132, 487219120, 0.46603104, 0.62439936, 0.51320285, -0.35995364, -7.405421, 1.8554454, -2.4930277
1133, 487235787, 0.44997835, 0.62458813, 0.51834375, -0.37246782, -0.27477968, -2.3235648, 3.2506752
1134, 487252454, 0.4377282, 0.62298137, 0.52041113, -0.38660562, 0.6650047, -3.7258263, 2.4822836
1135, 487269121, 0.43207744, 0.6171495, 0.5235587, -0.39790106, 0.736268, -1.9434984, -0.36722565
1136, 487285788, 0.4303806, 0.6083797, 0.5285641, -0.40653417, -0.9051409, 0.32208127, 0.26992893
1137, 487302455, 0.42332992, 0.6008673, 0.53391457, -0.41795823, -3.3441722, 1.6206368, 0.4033594
1138, 487319122, 0.41209525, 0.59415627, 0.539313, -0.43162596, -3.4346745, 1.6770473, -0.051522255
1139, 487335789, 0.40028465, 0.5873366, 0.5436731, -0.44635272, -2.6101592, 0.09142049, 0.13641644
1140, 487352456, 0.3898769, 0.58003753, 0.5467087, -0.46115676, -0.89071095, -1.2905672, 0.08237648
1141, 487369123, 0.38165525, 0.5713211, 0.5497688, -0.47506738, 0.1962636, -1.2781866, 0.16126537
1142, 487385790, 0.3736403, 0.56222534, 0.5528648, -0.48850763, 0.0777558, 0.5146431, 0.11809158
1143, 487402457, 0.36482918, 0.5540132, 0.555549, -0.5013359, 0.857116, 1.4818423, -0.5527439
1144, 487419124, 0.35656446, 0.54686373, 0.55702966, -0.51334506, 2.2239554, 1.4599241, -1.3540411
1145, 487435791, 0.34883118, 0.54081035, 0.5578448, -0.524074, 2.20414, 1.5197359, -1.9619284
1146, 487452458, 0.34109184, 0.53609467, 0.5573713, -0.5344152, 2.1207263, 0.84537315, -2.1048603
1147, 487469125, 0.33382323, 0.53197426, 0.55624497, -0.5442061, 2.1673012, 0.3249677, -1.4667921
1148, 487485792, 0.32713115, 0.5282696, 0.55488116, -0.5531967, 2.5633295, 0.7954866, -0.2144928
1149, 487502459, 0.3203808, 0.52528226, 0.55240613, -0.5623927, 2.3708515, 0.9821776, 0.22156811
1150, 487519126, 0.31416172, 0.5231032, 0.5485701, -0.5716115, 2.8419828, 0.52135044, 0.26056957
1151, 487535793, 0.30930936, 0.52135104, 0.5441432, -0.580028, 3.3380418, 0.7151082, 0.37819004
1152, 487552460, 0.30580106, 0.519533, 0.5398913, -0.5874454, 3.8875237, 1.0476493, 0.29707623
1153, 487569127, 0.3026098, 0.5180099, 0.53567123, -0.5942668, 4.2929964, 1.4400287, -0.05254364
1154, 487585794, 0.29983884, 0.51700985, 0.531282, -0.60045016, 4.4873705, 1.5305172, -0.10679817
1155, 487602461, 0.2975159, 0.51662576, 0.526287, -0.6063067, 4.9281163, 1.7237382, 0.35527992
1156, 487619128, 0.29582107, 0.5174113, 0.51973826, -0.6120875, 6.0965204, 2.3032975, -0.09155464
1157, 487635795, 0.29512626, 0.51974976, 0.51086956, -0.6178807, 8.058382, 3.0040448, -1.3842144
1158, 487652462, 0.29549593, 0.5238861, 0.5004011, -0.62275815, 10.871146, 3.882032, -2.5872293
1159, 487669129, 0.2979774, 0.5332668, 0.4875459, -0.62380975, 15.60246, 2.8669147, -4.822021
1160, 487685796, 0.3002455, 0.55023247, 0.4684274, -0.62263644, 14.694602, -2.8944561, -4.7087526
1161, 487702463, 0.30602628, 0.56901884, 0.44472882, -0.62031066, 7.8757367, -5.5681663, -3.0762954
1162, 487719130, 0.31722778, 0.5831822, 0.4245259, -0.6156673, 3.5534842, -1.254847, -0.9138012
1163, 487735797, 0.32930133, 0.59306616, 0.41512993, -0.6062208, 1.0889959, 6.295865, 3.9491043
1164, 487752464, 0.33842522, 0.6112096, 0.41084856, -0.5857458, 2.3869936, 8.356436, 7.6677017
1165, 487769131, 0.34993568, 0.62743497, 0.4065723, -0.5644225, -0.035045825, 1.6487987, 6.344322
1166, 487785798, 0.3638565, 0.639467, 0.4034449, -0.5439909, -1.9509825, 0.8818464, 5.622444
1167, 487802465, 0.3764604, 0.6520519, 0.39918387, -0.52322227, -2.03557, 0.62891406, 4.85917
1168, 487819132, 0.3861889, 0.6662716, 0.39448208, -0.5013258, -3.4617834, -0.2580694, 3.3446398
1169, 487835799, 0.39387488, 0.6791409, 0.39269406, -0.4789831, -5.7689557, -1.1461517, 2.4337206
1170, 487852466, 0.3985449, 0.6897339, 0.3938827, -0.45857286, -7.0758533, -1.9333597, 0.9255028
1171, 487869133, 0.39826027, 0.70031744, 0.3992575, -0.43765426, -6.395399, -0.16841298, -0.37827206
1172, 487885800, 0.39588717, 0.70973605, 0.40746763, -0.41655934, -7.3529673, -2.2882454, -0.5176935
1173, 487902467, 0.39939234, 0.7133874, 0.41653696, -0.3975733, -7.0920606, -3.676755, -2.1981835
1174, 487919134, 0.4069409, 0.71244484, 0.42561692, -0.38167408, -7.901706, -2.553394, -4.2922716
1175, 487935801, 0.41287297, 0.7102218, 0.43379176, -0.37006617, -8.803185, 0.28387865, -5.8801765
1176, 487952468, 0.41518193, 0.7081324, 0.44129997, -0.36253297, -8.797866, 0.3035373, -6.6937017
1177, 487969135, 0.41251698, 0.7081138, 0.4446249, -0.36154765, -6.964438, -0.12848933, -6.6109657
1178, 487985802, 0.40630558, 0.7104479, 0.44248325, -0.36659446, -4.864848, -0.0714586, -6.5837784
1179, 488002469, 0.39605683, 0.71605104, 0.4351775, -0.37554473, -3.0930402, -0.9662816, -4.941712
1180, 488019136, 0.38085452, 0.7257207, 0.4239052, -0.3854699, -1.0310136, -1.2595056, -2.828308
1181, 488035803, 0.37021405, 0.73330647, 0.41624582, -0.38980278, 0.50165313, 1.1402494, -0.42129898
1182, 488052470, 0.3658465, 0.73647934, 0.41458723, -0.38971183, 3.3342, -0.14269693, 1.0774136
1183, 488069137, 0.366268, 0.73666954, 0.41465858, -0.3888796, 7.7628875, -4.83003, 3.4577322
1184, 488085804, 0.37245256, 0.7346603, 0.41505325, -0.386377, 10.239447, -4.3971562, 5.0472527
1185, 488102471, 0.37745196, 0.7325824, 0.4168548, -0.3835211, 7.805042, -0.3796551, 5.176673
1186, 488119138, 0.38126343, 0.7300447, 0.42145985, -0.3795358, 6.0118327, 1.6463606, 4.8859997
1187, 488135805, 0.38684347, 0.7266461, 0.42760563, -0.373489, 4.734079, 1.1640139, 4.2334394
1188, 488152472, 0.39800987, 0.72095954, 0.4336127, -0.36577132, 0.98491186, -1.2375287, 1.6199427
1189, 488169139, 0.41279936, 0.71268266, 0.4383443, -0.35991323, -4.3598776, -2.0560203, -1.1889362
1190, 488185806, 0.42693856, 0.7013459, 0.4426459, -0.3604231, -10.385285, -5.3057604, 0.22109032
1191, 488202473, 0.43899682, 0.68719435, 0.4557933, -0.35679293, -13.628851, -1.0043904, 10.101751
1192, 488219140, 0.44998005, 0.676907, 0.46250826, -0.3541243, 7.723231, -2.072645, 3.389946
1193, 488235807, 0.45986035, 0.6687232, 0.46586916, -0.35257164, 7.1000676, -0.51858044, -2.0719452
1194, 488252474, 0.4628833, 0.6602107, 0.4750459, -0.35241348, -6.695942, 0.5398379, -4.005698
1195, 488269141, 0.46084106, 0.6518584, 0.48510095, -0.3569121, -15.531665, -0.78798264, -0.5816107
1196, 488285808, 0.4608332, 0.6432806, 0.49201417, -0.3629711, -16.596636, 2.9309525, -1.301527
1197, 488302475, 0.45132667, 0.6388034, 0.4989127, -0.3732608, -4.547343, 1.3195171, -2.6971564
1198, 488319142, 0.4403576, 0.63575137, 0.5039136, -0.38468105, -0.14829123, -1.760386, 1.3620844
1199, 488335809, 0.4309307, 0.63201123, 0.507296, -0.39688078, -0.5186759, -1.0079325, 1.0135164
1200, 488352476, 0.4232764, 0.62717247, 0.51019543, -0.40889543, -0.073219046, 0.75076103, 0.3515625
1201, 488369143, 0.4166894, 0.6216658, 0.51362187, -0.41963968, -0.85262114, 1.2287151, 0.5363655
1202, 488385810, 0.40852284, 0.61567765, 0.5173704, -0.43171883, -1.8091791, 0.2886329, -0.20264721
1203, 488402477, 0.3979854, 0.6095838, 0.52116036, -0.44543234, -1.405292, 0.31730056, -0.39657307
1204, 488419144, 0.38641948, 0.6038489, 0.5244252, -0.45937756, -1.0465633, 0.62028843, 0.014169693
1205, 488435811, 0.37489134, 0.5980107, 0.5267757, -0.473656, -0.48686934, 0.1382079, -0.25648975
1206, 488452478, 0.3646145, 0.59187835, 0.5277452, -0.48808208, 1.0426127, -0.42292964, -0.7756643
1207, 488469145, 0.3571217, 0.584417, 0.5294621, -0.5005936, 1.6484045, -0.36121282, -0.8461485
1208, 488485812, 0.35089204, 0.5760108, 0.5328008, -0.5110898, 1.1882259, 0.54084504, -0.5954647
1209, 488502479, 0.34375766, 0.5681321, 0.53645015, -0.52084625, 1.1161631, 1.4274696, -0.81786156
1210, 488519146, 0.33545953, 0.5615004, 0.5388682, -0.5308561, 1.719753, 1.4723755, -1.2458334
1211, 488535813, 0.32800865, 0.5554853, 0.54014885, -0.5404523, 2.4003878, 0.4278313, -1.8145957
1212, 488552480, 0.32202336, 0.5497329, 0.5408075, -0.54920405, 2.067949, -0.37022763, -1.8967762
1213, 488569147, 0.31664973, 0.54413, 0.5412341, -0.5574262, 1.5361898, 0.9713463, -0.37732506
1214, 488585814, 0.31078345, 0.53924596, 0.54119587, -0.5654534, 1.9734356, 1.9290422, 0.13892841
1215, 488602481, 0.30410635, 0.5358538, 0.5395418, -0.573827, 2.4698994, 1.3424253, 0.3313465
